address,Hour,Minute,Second,Time,ax,ay,az
0x50,11,4,50.012,0,0.0039,0.001,0.999
0x50,11,4,50.012,0,0.0034,0.0005,1.001
0x50,11,4,50.019,0.007,0.0034,0.0005,1.001
0x50,11,4,50.029,0.017,0.0015,0,1
0x50,11,4,50.039,0.027,0.0015,0,1
0x50,11,4,50.059,0.047,-0.0005,-0.001,0.9985
0x50,11,4,50.059,0.047,-0.0005,-0.001,0.9985
0x50,11,4,50.081,0.069,-0.002,-0.002,1
0x50,11,4,50.085,0.073,-0.002,-0.002,1
0x50,11,4,50.1,0.088,-0.0024,-0.001,1
0x50,11,4,50.106,0.094,-0.0024,-0.001,1
0x50,11,4,50.122,0.11,-0.001,0,1
0x50,11,4,50.125,0.113,-0.001,0,1
0x50,11,4,50.164,0.152,0.001,0.001,0.9995
0x50,11,4,50.164,0.152,0.001,0.001,0.9995
0x50,11,4,50.164,0.152,0.0015,0.0015,1
0x50,11,4,50.165,0.153,0.0015,0.0015,1
0x50,11,4,50.19,0.178,0.0015,0,1.0005
0x50,11,4,50.217,0.205,0.0015,0,1.0005
0x50,11,4,50.241,0.229,0.0005,-0.0005,0.9995
0x50,11,4,50.244,0.232,0.0005,-0.0005,0.9995
0x50,11,4,50.249,0.237,-0.0005,-0.001,0.999
0x50,11,4,50.252,0.24,-0.0005,-0.001,0.999
0x50,11,4,50.254,0.242,-0.001,-0.0015,1
0x50,11,4,50.256,0.244,-0.001,-0.0015,1
0x50,11,4,50.259,0.247,0,-0.0005,1
0x50,11,4,50.261,0.249,0,-0.0005,1
0x50,11,4,50.286,0.274,0.0005,0,0.9995
0x50,11,4,50.286,0.274,0.0005,0,0.9995
0x50,11,4,50.286,0.274,0.001,0.0005,1
0x50,11,4,50.301,0.289,0.001,0.0005,1
0x50,11,4,50.305,0.293,0.001,0.0005,1.0005
0x50,11,4,50.354,0.342,0.001,0.0005,1.0005
0x50,11,4,50.354,0.342,0,0,1
0x50,11,4,50.354,0.342,0,0,1
0x50,11,4,50.358,0.346,-0.0005,0,1
0x50,11,4,50.368,0.356,-0.0005,0,1
0x50,11,4,50.375,0.363,-0.0015,-0.0005,0.9995
0x50,11,4,50.39,0.378,-0.0015,-0.0005,0.9995
0x50,11,4,50.39,0.378,-0.0005,-0.001,1
0x50,11,4,50.409,0.397,-0.0005,-0.001,1
0x50,11,4,50.415,0.403,0.0005,-0.0005,1
0x50,11,4,50.427,0.415,0.0005,-0.0005,1
0x50,11,4,50.435,0.423,0.002,0,1
0x50,11,4,50.46,0.448,0.002,0,1
0x50,11,4,50.47,0.458,0.0015,0,0.9995
0x50,11,4,50.472,0.46,0.0015,0,0.9995
0x50,11,4,50.475,0.463,0.0005,0,1
0x50,11,4,50.491,0.479,0.0005,0,1
0x50,11,4,50.491,0.479,0,-0.0005,0.9995
0x50,11,4,50.495,0.483,0,-0.0005,0.9995
0x50,11,4,50.51,0.498,-0.001,-0.0005,1
0x50,11,4,50.516,0.504,-0.001,-0.0005,1
0x50,11,4,50.526,0.514,-0.002,0,0.9995
0x50,11,4,50.536,0.524,-0.002,0,0.9995
0x50,11,4,50.546,0.534,-0.001,0,1
0x50,11,4,50.591,0.579,-0.001,0,1
0x50,11,4,50.597,0.585,0,0,1
0x50,11,4,50.607,0.595,0,0,1
0x50,11,4,50.609,0.597,0.001,0,0.999
0x50,11,4,50.612,0.6,0.001,0,0.999
0x50,11,4,50.619,0.607,0.001,0,1.0005
0x50,11,4,50.619,0.607,0.001,0,1.0005
0x50,11,4,50.637,0.625,0.0015,0,0.9995
0x50,11,4,50.637,0.625,0.0015,0,0.9995
0x50,11,4,50.658,0.646,0.0005,0,0.9995
0x50,11,4,50.658,0.646,0.0005,0,0.9995
0x50,11,4,50.677,0.665,0.0005,-0.0005,1.0005
0x50,11,4,50.677,0.665,0.0005,-0.0005,1.0005
0x50,11,4,50.694,0.682,-0.001,-0.001,1
0x50,11,4,50.704,0.692,-0.001,-0.001,1
0x50,11,4,50.72,0.708,-0.0015,-0.0005,0.9995
0x50,11,4,50.722,0.71,-0.0015,-0.0005,0.9995
0x50,11,4,50.738,0.726,-0.0015,-0.0005,1
0x50,11,4,50.741,0.729,-0.0015,-0.0005,1
0x50,11,4,50.784,0.772,-0.0005,0,1
0x50,11,4,50.784,0.772,-0.0005,0,1
0x50,11,4,50.784,0.772,0.0005,0.0005,0.9995
0x50,11,4,50.784,0.772,0.0005,0.0005,0.9995
0x50,11,4,50.807,0.795,0.0005,0.0005,0.9995
0x50,11,4,50.809,0.797,0.0005,0.0005,0.9995
0x50,11,4,50.812,0.8,0.0015,0,1
0x50,11,4,50.815,0.803,0.0015,0,1
0x50,11,4,50.831,0.819,0.001,-0.0005,0.9995
0x50,11,4,50.833,0.821,0.001,-0.0005,0.9995
0x50,11,4,50.846,0.834,0.0005,-0.0005,0.999
0x50,11,4,50.853,0.841,0.0005,-0.0005,0.999
0x50,11,4,50.869,0.857,0,-0.0005,1
0x50,11,4,50.872,0.86,0,-0.0005,1
0x50,11,4,50.897,0.885,0,-0.0005,1
0x50,11,4,50.899,0.887,0,-0.0005,1
0x50,11,4,50.903,0.891,0,0,1
0x50,11,4,50.93,0.918,0,0,1
0x50,11,4,50.97,0.958,-0.0005,0,0.9995
0x50,11,4,50.975,0.963,-0.0005,0,0.9995
0x50,11,4,50.98,0.968,0,0,1
0x50,11,4,50.985,0.973,0,0,1
0x50,11,4,50.987,0.975,0,0,1
0x50,11,4,50.99,0.978,0,0,1
0x50,11,4,50.993,0.981,0.0005,0,0.999
0x50,11,4,51.003,0.991,0.0005,0,0.999
0x50,11,4,51.003,0.991,0.0005,0,0.9995
0x50,11,4,51.024,1.012,0.0005,0,0.9995
0x50,11,4,51.024,1.012,0.0005,0,1
0x50,11,4,51.047,1.035,0.0005,0,1
0x50,11,4,51.049,1.037,0.001,0,0.9995
0x50,11,4,51.068,1.056,0.001,0,0.9995
0x50,11,4,51.07,1.058,0,-0.0005,0.999
0x50,11,4,51.095,1.083,0,-0.0005,0.999
0x50,11,4,51.11,1.098,0,-0.0005,1.0005
0x50,11,4,51.113,1.101,0,-0.0005,1.0005
0x50,11,4,51.115,1.103,-0.0005,0,1
0x50,11,4,51.119,1.107,-0.0005,0,1
0x50,11,4,51.126,1.114,-0.0005,0,0.999
0x50,11,4,51.133,1.121,-0.0005,0,0.999
0x50,11,4,51.143,1.131,0,-0.0005,1
0x50,11,4,51.155,1.143,0,-0.0005,1
0x50,11,4,51.161,1.149,0,0,1
0x50,11,4,51.212,1.2,0,0,1
0x50,11,4,51.213,1.201,0,0,0.9995
0x50,11,4,51.213,1.201,0,0,0.9995
0x50,11,4,51.213,1.201,0,0,0.9995
0x50,11,4,51.218,1.206,0,0,0.9995
0x50,11,4,51.22,1.208,0.001,0,0.9995
0x50,11,4,51.235,1.223,0.001,0,0.9995
0x50,11,4,51.267,1.255,0.0005,0,1.0005
0x50,11,4,51.267,1.255,0.0005,0,1.0005
0x50,11,4,51.269,1.257,0,0,1.0005
0x50,11,4,51.271,1.259,0,0,1.0005
0x50,11,4,51.282,1.27,0,0,0.9985
0x50,11,4,51.306,1.294,0,0,0.9985
0x50,11,4,51.339,1.327,0,-0.0005,0.9995
0x50,11,4,51.341,1.329,0,-0.0005,0.9995
0x50,11,4,51.344,1.332,0,-0.0005,0.9995
0x50,11,4,51.346,1.334,0,0,1
0x50,11,4,51.349,1.337,0,0,1
0x50,11,4,51.361,1.349,0,-0.0005,0.9995
0x50,11,4,51.403,1.391,0,-0.0005,0.9995
0x50,11,4,51.403,1.391,0,-0.001,0.9995
0x50,11,4,51.403,1.391,0,-0.001,0.9995
0x50,11,4,51.403,1.391,0,-0.0005,1.0005
0x50,11,4,51.41,1.398,0,-0.0005,1.0005
0x50,11,4,51.42,1.408,0.001,0,1.0005
0x50,11,4,51.429,1.417,0.001,0,1.0005
0x50,11,4,51.438,1.426,0.0005,0.0005,0.9995
0x50,11,4,51.454,1.442,0.0005,0.0005,0.9995
0x50,11,4,51.455,1.443,0.001,0,0.9995
0x50,11,4,51.462,1.45,0.001,0,0.9995
0x50,11,4,51.469,1.457,0,0,1.0005
0x50,11,4,51.484,1.472,0,0,1.0005
0x50,11,4,51.488,1.476,-0.0005,0,0.9995
0x50,11,4,51.503,1.491,-0.0005,0,0.9995
0x50,11,4,51.507,1.495,-0.001,-0.001,0.9995
0x50,11,4,51.523,1.511,-0.001,-0.001,0.9995
0x50,11,4,51.529,1.517,-0.0015,-0.0015,1.0005
0x50,11,4,51.544,1.532,-0.0015,-0.0015,1.0005
0x50,11,4,51.55,1.538,0,-0.001,1.0005
0x50,11,4,51.589,1.577,0,-0.001,1.0005
0x50,11,4,51.589,1.577,0,-0.0005,0.999
0x50,11,4,51.589,1.577,0,-0.0005,0.999
0x50,11,4,51.597,1.585,0.0015,0,1
0x50,11,4,51.597,1.585,0.0015,0,1
0x50,11,4,51.617,1.605,0.0015,0,1
0x50,11,4,51.617,1.605,0.0015,0,1
0x50,11,4,51.631,1.619,0.001,0,1
0x50,11,4,51.638,1.626,0.001,0,1
0x50,11,4,51.693,1.681,0,0,0.9995
0x50,11,4,51.693,1.681,0,0,0.9995
0x50,11,4,51.714,1.702,-0.0005,0,0.9995
0x50,11,4,51.716,1.704,-0.0005,0,0.9995
0x50,11,4,51.777,1.765,-0.001,0,1.0005
0x50,11,4,51.777,1.765,-0.001,0,1.0005
0x50,11,4,51.777,1.765,-0.001,0,0.9995
0x50,11,4,51.777,1.765,-0.001,0,0.9995
0x50,11,4,51.777,1.765,0,-0.0005,0.9995
0x50,11,4,51.777,1.765,0,-0.0005,0.9995
0x50,11,4,51.777,1.765,0,-0.0005,1.0005
0x50,11,4,51.777,1.765,0,-0.0005,1.0005
0x50,11,4,51.777,1.765,0.0005,-0.0005,1.0005
0x50,11,4,51.78,1.768,0.0005,-0.0005,1.0005
0x50,11,4,51.79,1.778,0.0005,-0.0005,1
0x50,11,4,51.799,1.787,0.0005,-0.0005,1
0x50,11,4,51.809,1.797,0.001,0,0.999
0x50,11,4,51.819,1.807,0.001,0,0.999
0x50,11,4,51.829,1.817,0,0,1
0x50,11,4,51.84,1.828,0,0,1
0x50,11,4,51.857,1.845,0.0005,0,0.9995
0x50,11,4,51.859,1.847,0.0005,0,0.9995
0x50,11,4,51.869,1.857,0,0,0.999
0x50,11,4,51.887,1.875,0,0,0.999
0x50,11,4,51.887,1.875,-0.0005,0,1
0x50,11,4,51.897,1.885,-0.0005,0,1
0x50,11,4,51.907,1.895,-0.0005,0,1
0x50,11,4,51.929,1.917,-0.0005,0,1
0x50,11,4,51.929,1.917,-0.0005,-0.001,0.9995
0x50,11,4,51.95,1.938,-0.0005,-0.001,0.9995
0x50,11,4,51.954,1.942,0,-0.001,0.9995
0x50,11,4,51.969,1.957,0,-0.001,0.9995
0x50,11,4,51.975,1.963,0,-0.001,1
0x50,11,4,52.008,1.996,0,-0.001,1
0x50,11,4,52.009,1.997,0,0,1
0x50,11,4,52.011,1.999,0,0,1
0x50,11,4,52.012,2,0.0015,0,0.999
0x50,11,4,52.067,2.055,0.0015,0,0.999
0x50,11,4,52.07,2.058,0.0015,0,0.9995
0x50,11,4,52.072,2.06,0.0015,0,0.9995
0x50,11,4,52.075,2.063,0.001,0,1
0x50,11,4,52.077,2.065,0.001,0,1
0x50,11,4,52.08,2.068,-0.0005,0,1
0x50,11,4,52.086,2.074,-0.0005,0,1
0x50,11,4,52.089,2.077,-0.0015,0,0.999
0x50,11,4,52.099,2.087,-0.0015,0,0.999
0x50,11,4,52.106,2.094,-0.0015,0,1.0005
0x50,11,4,52.122,2.11,-0.0015,0,1.0005
0x50,11,4,52.124,2.112,-0.001,0,1.0005
0x50,11,4,52.139,2.127,-0.001,0,1.0005
0x50,11,4,52.145,2.133,0,0,0.999
0x50,11,4,52.16,2.148,0,0,0.999
0x50,11,4,52.201,2.189,0.0015,0,1
0x50,11,4,52.201,2.189,0.0015,0,1
0x50,11,4,52.201,2.189,0.002,0,1.0015
0x50,11,4,52.203,2.191,0.002,0,1.0015
0x50,11,4,52.215,2.203,0.0015,0,1
0x50,11,4,52.215,2.203,0.0015,0,1
0x50,11,4,52.236,2.224,0,-0.0005,0.999
0x50,11,4,52.236,2.224,0,-0.0005,0.999
0x50,11,4,52.269,2.257,-0.001,-0.001,0.9995
0x50,11,4,52.269,2.257,-0.001,-0.001,0.9995
0x50,11,4,52.271,2.259,-0.001,-0.0005,1.0005
0x50,11,4,52.274,2.262,-0.001,-0.0005,1.0005
0x50,11,4,52.294,2.282,-0.0005,0,1.0005
0x50,11,4,52.305,2.293,-0.0005,0,1.0005
0x50,11,4,52.315,2.303,0,0,0.999
0x50,11,4,52.323,2.311,0,0,0.999
0x50,11,4,52.338,2.326,0.0005,0.0005,0.9995
0x50,11,4,52.342,2.33,0.0005,0.0005,0.9995
0x50,11,4,52.394,2.382,0.0015,0.0005,1.0005
0x50,11,4,52.394,2.382,0.0015,0.0005,1.0005
0x50,11,4,52.411,2.399,0,0,0.9995
0x50,11,4,52.436,2.424,0,0,0.9995
0x50,11,4,52.454,2.442,0,-0.0005,1.0005
0x50,11,4,52.459,2.447,0,-0.0005,1.0005
0x50,11,4,52.464,2.452,-0.0005,-0.0005,1
0x50,11,4,52.47,2.458,-0.0005,-0.0005,1
0x50,11,4,52.472,2.46,-0.0005,-0.001,0.999
0x50,11,4,52.474,2.462,-0.0005,-0.001,0.999
0x50,11,4,52.479,2.467,0.0005,-0.0005,0.9995
0x50,11,4,52.482,2.47,0.0005,-0.0005,0.9995
0x50,11,4,52.484,2.472,0.002,-0.0005,1.0005
0x50,11,4,52.489,2.477,0.002,-0.0005,1.0005
0x50,11,4,52.494,2.482,0.002,0,0.9995
0x50,11,4,52.499,2.487,0.002,0,0.9995
0x50,11,4,52.502,2.49,0.0005,0,1
0x50,11,4,52.516,2.504,0.0005,0,1
0x50,11,4,52.523,2.511,-0.0005,0,1.0005
0x50,11,4,52.54,2.528,-0.0005,0,1.0005
0x50,11,4,52.542,2.53,-0.002,-0.0005,0.9995
0x50,11,4,52.562,2.55,-0.002,-0.0005,0.9995
0x50,11,4,52.576,2.564,-0.0015,-0.0005,1.0005
0x50,11,4,52.58,2.568,-0.0015,-0.0005,1.0005
0x50,11,4,52.635,2.623,-0.002,0,0.9976
0x50,11,4,52.635,2.623,-0.002,0,0.9976
0x50,11,4,52.635,2.623,0,0,1
0x50,11,4,52.635,2.623,0,0,1
0x50,11,4,52.635,2.623,0.0024,0,1.0005
0x50,11,4,52.641,2.629,0.0024,0,1.0005
0x50,11,4,52.656,2.644,0.0034,-0.0005,1
0x50,11,4,52.656,2.644,0.0034,-0.0005,1
0x50,11,4,52.659,2.647,0.0029,-0.0005,0.999
0x50,11,4,52.698,2.686,0.0029,-0.0005,0.999
0x50,11,4,52.703,2.691,0,0,1
0x50,11,4,52.705,2.693,0,0,1
0x50,11,4,52.712,2.7,-0.002,0,1.002
0x50,11,4,52.727,2.715,-0.002,0,1.002
0x50,11,4,52.73,2.718,-0.0039,0,0.999
0x50,11,4,52.732,2.72,-0.0039,0,0.999
0x50,11,4,52.742,2.73,-0.0024,0.0005,0.9985
0x50,11,4,52.77,2.758,-0.0024,0.0005,0.9985
0x50,11,4,52.828,2.816,-0.001,0,1
0x50,11,4,52.828,2.816,-0.001,0,1
0x50,11,4,52.828,2.816,0.002,0,1.0005
0x50,11,4,52.828,2.816,0.002,0,1.0005
0x50,11,4,52.828,2.816,0.0034,0,1
0x50,11,4,52.828,2.816,0.0034,0,1
0x50,11,4,52.828,2.816,0.0029,-0.0015,0.9976
0x50,11,4,52.833,2.821,0.0029,-0.0015,0.9976
0x50,11,4,52.851,2.839,0.0015,-0.0024,0.9995
0x50,11,4,52.852,2.84,0.0015,-0.0024,0.9995
0x50,11,4,52.862,2.85,0,-0.0024,1.001
0x50,11,4,52.872,2.86,0,-0.0024,1.001
0x50,11,4,52.883,2.871,-0.001,-0.001,1
0x50,11,4,52.893,2.881,-0.001,-0.001,1
0x50,11,4,52.91,2.898,-0.0015,0,0.9985
0x50,11,4,52.911,2.899,-0.0015,0,0.9985
0x50,11,4,52.931,2.919,0,0.0005,1.0005
0x50,11,4,52.941,2.929,0,0.0005,1.0005
0x50,11,4,52.951,2.939,-0.0005,0.001,1.0015
0x50,11,4,52.96,2.948,-0.0005,0.001,1.0015
0x50,11,4,52.971,2.959,0,0.002,0.999
0x50,11,4,53.012,3,0,0.002,0.999
0x50,11,4,53.012,3,0,0.001,0.9985
0x50,11,4,53.02,3.008,0,0.001,0.9985
0x50,11,4,53.033,3.021,0,0,1
0x50,11,4,53.035,3.023,0,0,1
0x50,11,4,53.043,3.031,0.0015,-0.0024,1.002
0x50,11,4,53.045,3.033,0.0015,-0.0024,1.002
0x50,11,4,53.048,3.036,0.0005,-0.0024,0.999
0x50,11,4,53.05,3.038,0.0005,-0.0024,0.999
0x50,11,4,53.068,3.056,0,-0.0015,0.998
0x50,11,4,53.07,3.058,0,-0.0015,0.998
0x50,11,4,53.087,3.075,0,-0.0005,1.0005
0x50,11,4,53.089,3.077,0,-0.0005,1.0005
0x50,11,4,53.104,3.092,0,0,1.0015
0x50,11,4,53.108,3.096,0,0,1.0015
0x50,11,4,53.135,3.123,0,0.0015,0.9985
0x50,11,4,53.16,3.148,0,0.0015,0.9985
0x50,11,4,53.202,3.19,0,0.0015,0.9995
0x50,11,4,53.202,3.19,0,0.0015,0.9995
0x50,11,4,53.202,3.19,0,0.0005,1.0005
0x50,11,4,53.202,3.19,0,0.0005,1.0005
0x50,11,4,53.202,3.19,0,0.0005,1.0005
0x50,11,4,53.202,3.19,0,0,1.0015
0x50,11,4,53.208,3.196,0,0,1.0015
0x50,11,4,53.22,3.208,-0.0005,-0.0005,0.9985
0x50,11,4,53.229,3.217,-0.0005,-0.0005,0.9985
0x50,11,4,53.244,3.232,0.0005,0,0.9976
0x50,11,4,53.244,3.232,0.0005,0,0.9976
0x50,11,4,53.262,3.25,0.001,-0.002,1.001
0x50,11,4,53.262,3.25,0.001,-0.002,1.001
0x50,11,4,53.28,3.268,0.001,-0.0015,1.001
0x50,11,4,53.29,3.278,0.001,-0.0015,1.001
0x50,11,4,53.297,3.285,0.0015,-0.0005,0.9985
0x50,11,4,53.313,3.301,0.0015,-0.0005,0.9985
0x50,11,4,53.318,3.306,0.001,0,0.9985
0x50,11,4,53.327,3.315,0.001,0,0.9985
0x50,11,4,53.342,3.33,0,0,1.001
0x50,11,4,53.345,3.333,0,0,1.001
0x50,11,4,53.361,3.349,0,0.0005,1.001
0x50,11,4,53.361,3.349,0,0.0005,1.001
0x50,11,4,53.369,3.357,-0.0005,0.001,0.9985
0x50,11,4,53.379,3.367,-0.0005,0.001,0.9985
0x50,11,4,53.395,3.383,-0.001,0.0015,0.999
0x50,11,4,53.397,3.385,-0.001,0.0015,0.999
0x50,11,4,53.445,3.433,0,0,1.0015
0x50,11,4,53.445,3.433,0,0,1.0015
0x50,11,4,53.445,3.433,0,0,1.0005
0x50,11,4,53.445,3.433,0,0,1.0005
0x50,11,4,53.453,3.441,0.001,-0.0005,0.998
0x50,11,4,53.455,3.443,0.001,-0.0005,0.998
0x50,11,4,53.472,3.46,-0.0024,0.0186,1.0288
0x50,11,4,53.5,3.488,-0.0024,0.0186,1.0288
0x50,11,4,53.501,3.489,0.0298,0.0259,1.0049
0x50,11,4,53.525,3.513,0.0298,0.0259,1.0049
0x50,11,4,53.543,3.531,-0.0215,0.0205,0.9419
0x50,11,4,53.546,3.534,-0.0215,0.0205,0.9419
0x50,11,4,53.548,3.536,0.0195,-0.0313,1.0186
0x50,11,4,53.553,3.541,0.0195,-0.0313,1.0186
0x50,11,4,53.556,3.544,-0.0571,-0.0532,0.9907
0x50,11,4,53.566,3.554,-0.0571,-0.0532,0.9907
0x50,11,4,53.576,3.564,-0.0029,-0.0708,1.0259
0x50,11,4,53.588,3.576,-0.0029,-0.0708,1.0259
0x50,11,4,53.595,3.583,-0.0234,-0.0371,0.98
0x50,11,4,53.633,3.621,-0.0234,-0.0371,0.98
0x50,11,4,53.633,3.621,0.0229,0.0073,1.0161
0x50,11,4,53.633,3.621,0.0229,0.0073,1.0161
0x50,11,4,53.633,3.621,0.0303,0.061,1.0005
0x50,11,4,53.658,3.646,0.0303,0.061,1.0005
0x50,11,4,53.67,3.658,0.0332,0.0684,0.9844
0x50,11,4,53.673,3.661,0.0332,0.0684,0.9844
0x50,11,4,53.675,3.663,0.0171,0.064,1.0083
0x50,11,4,53.678,3.666,0.0171,0.064,1.0083
0x50,11,4,53.688,3.676,-0.001,0.0376,1.0283
0x50,11,4,53.704,3.692,-0.001,0.0376,1.0283
0x50,11,4,53.706,3.694,-0.0142,0.0029,0.9995
0x50,11,4,53.721,3.709,-0.0142,0.0029,0.9995
0x50,11,4,53.725,3.713,-0.0337,-0.0342,0.9639
0x50,11,4,53.753,3.741,-0.0337,-0.0342,0.9639
0x50,11,4,53.755,3.743,-0.0278,-0.0684,1.0078
0x50,11,4,53.758,3.746,-0.0278,-0.0684,1.0078
0x50,11,4,53.765,3.753,-0.0005,-0.064,1.0186
0x50,11,4,53.781,3.769,-0.0005,-0.064,1.0186
0x50,11,4,53.784,3.772,0.0049,-0.0425,0.9761
0x50,11,4,53.829,3.817,0.0049,-0.0425,0.9761
0x50,11,4,53.829,3.817,0.0103,-0.0132,0.9727
0x50,11,4,53.829,3.817,0.0103,-0.0132,0.9727
0x50,11,4,53.838,3.826,0.0186,0.0146,1.0181
0x50,11,4,53.843,3.831,0.0186,0.0146,1.0181
0x50,11,4,53.879,3.867,0.0239,0.0459,1.0293
0x50,11,4,53.879,3.867,0.0239,0.0459,1.0293
0x50,11,4,53.918,3.906,0.001,0.0576,0.98
0x50,11,4,53.918,3.906,0.001,0.0576,0.98
0x50,11,4,53.923,3.911,-0.02,0.0527,0.9824
0x50,11,4,53.925,3.913,-0.02,0.0527,0.9824
0x50,11,4,53.928,3.916,-0.0381,0.02,1.0181
0x50,11,4,53.93,3.918,-0.0381,0.02,1.0181
0x50,11,4,53.934,3.922,-0.0396,-0.0103,1.019
0x50,11,4,53.944,3.932,-0.0396,-0.0103,1.019
0x50,11,4,53.953,3.941,-0.0122,-0.0308,0.9785
0x50,11,4,53.963,3.951,-0.0122,-0.0308,0.9785
0x50,11,4,53.975,3.963,0.019,-0.0474,0.9741
0x50,11,4,54.022,4.01,0.019,-0.0474,0.9741
0x50,11,4,54.022,4.01,0.0376,-0.0415,1.0239
0x50,11,4,54.022,4.01,0.0376,-0.0415,1.0239
0x50,11,4,54.022,4.01,0.0288,-0.0171,1.0142
0x50,11,4,54.022,4.01,0.0288,-0.0171,1.0142
0x50,11,4,54.023,4.011,0.0366,0.0015,0.9727
0x50,11,4,54.038,4.026,0.0366,0.0015,0.9727
0x50,11,4,54.044,4.032,0.0044,0.0278,1.0068
0x50,11,4,54.054,4.042,0.0044,0.0278,1.0068
0x50,11,4,54.068,4.056,-0.0107,0.0391,1.0176
0x50,11,4,54.072,4.06,-0.0107,0.0391,1.0176
0x50,11,4,54.089,4.077,-0.0454,0.0498,1.0103
0x50,11,4,54.091,4.079,-0.0454,0.0498,1.0103
0x50,11,4,54.109,4.097,-0.0479,0.0405,0.9707
0x50,11,4,54.111,4.099,-0.0479,0.0405,0.9707
0x50,11,4,54.128,4.116,-0.0264,0.0264,0.9971
0x50,11,4,54.132,4.12,-0.0264,0.0264,0.9971
0x50,11,4,54.147,4.135,0.0098,-0.0005,1.0273
0x50,11,4,54.164,4.152,0.0098,-0.0005,1.0273
0x50,11,4,54.174,4.162,0.0376,-0.0137,0.9995
0x50,11,4,54.184,4.172,0.0376,-0.0137,0.9995
0x50,11,4,54.194,4.182,0.041,-0.0283,0.9775
0x50,11,4,54.205,4.193,0.041,-0.0283,0.9775
0x50,11,4,54.211,4.199,0.0269,-0.0356,0.9976
0x50,11,4,54.262,4.25,0.0269,-0.0356,0.9976
0x50,11,4,54.277,4.265,-0.0039,-0.0366,1.0059
0x50,11,4,54.285,4.273,-0.0039,-0.0366,1.0059
0x50,11,4,54.317,4.305,-0.041,-0.0161,0.9976
0x50,11,4,54.325,4.313,-0.041,-0.0161,0.9976
0x50,11,4,54.328,4.316,-0.0557,0.0166,0.999
0x50,11,4,54.33,4.318,-0.0557,0.0166,0.999
0x50,11,4,54.333,4.321,-0.0474,0.0532,1.0093
0x50,11,4,54.335,4.323,-0.0474,0.0532,1.0093
0x50,11,4,54.338,4.326,-0.0098,0.0786,1.0132
0x50,11,4,54.34,4.328,-0.0098,0.0786,1.0132
0x50,11,4,54.343,4.331,0.0234,0.0825,1
0x50,11,4,54.345,4.333,0.0234,0.0825,1
0x50,11,4,54.348,4.336,0.0542,0.0581,0.999
0x50,11,4,54.351,4.339,0.0542,0.0581,0.999
0x50,11,4,54.366,4.354,0.0562,0.0127,0.998
0x50,11,4,54.372,4.36,0.0562,0.0127,0.998
0x50,11,4,54.386,4.374,0.0298,-0.041,0.9922
0x50,11,4,54.39,4.378,0.0298,-0.041,0.9922
0x50,11,4,54.405,4.393,-0.0156,-0.082,0.9902
0x50,11,4,54.412,4.4,-0.0156,-0.082,0.9902
0x50,11,4,54.45,4.438,-0.0527,-0.0898,0.998
0x50,11,4,54.45,4.438,-0.0527,-0.0898,0.998
0x50,11,4,54.451,4.439,-0.0571,-0.0522,1.0171
0x50,11,4,54.461,4.449,-0.0571,-0.0522,1.0171
0x50,11,4,54.473,4.461,-0.0371,0.0186,1.0181
0x50,11,4,54.473,4.461,-0.0371,0.0186,1.0181
0x50,11,4,54.495,4.483,0.0122,0.0801,0.9829
0x50,11,4,54.495,4.483,0.0122,0.0801,0.9829
0x50,11,4,54.515,4.503,0.0581,0.0991,0.9863
0x50,11,4,54.515,4.503,0.0581,0.0991,0.9863
0x50,11,4,54.532,4.52,0.0762,0.063,0.9941
0x50,11,4,54.538,4.526,0.0762,0.063,0.9941
0x50,11,4,54.555,4.543,0.062,-0.0142,0.9961
0x50,11,4,54.558,4.546,0.062,-0.0142,0.9961
0x50,11,4,54.573,4.561,-0.0005,-0.0928,0.9727
0x50,11,4,54.581,4.569,-0.0005,-0.0928,0.9727
0x50,11,4,54.64,4.628,-0.0728,-0.1284,0.9946
0x50,11,4,54.641,4.629,-0.0728,-0.1284,0.9946
0x50,11,4,54.645,4.633,-0.124,-0.0854,1.0337
0x50,11,4,54.648,4.636,-0.124,-0.0854,1.0337
0x50,11,4,54.65,4.638,-0.0938,0.0107,1.0522
0x50,11,4,54.655,4.643,-0.0938,0.0107,1.0522
0x50,11,4,54.658,4.646,-0.0054,0.1152,1.0059
0x50,11,4,54.661,4.649,-0.0054,0.1152,1.0059
0x50,11,4,54.663,4.651,0.1016,0.146,0.9478
0x50,11,4,54.672,4.66,0.1016,0.146,0.9478
0x50,11,4,54.681,4.669,0.1577,0.0762,0.9463
0x50,11,4,54.693,4.681,0.1577,0.0762,0.9463
0x50,11,4,54.699,4.687,0.1196,-0.0493,1.0034
0x50,11,4,54.712,4.7,0.1196,-0.0493,1.0034
0x50,11,4,54.72,4.708,-0.0151,-0.1274,1.0435
0x50,11,4,54.73,4.718,-0.0151,-0.1274,1.0435
0x50,11,4,54.742,4.73,-0.1523,-0.1055,1.041
0x50,11,4,54.756,4.744,-0.1523,-0.1055,1.041
0x50,11,4,54.759,4.747,-0.1909,-0.0044,1.0449
0x50,11,4,54.784,4.772,-0.1909,-0.0044,1.0449
0x50,11,4,54.787,4.775,-0.0796,0.0928,0.9927
0x50,11,4,54.824,4.812,-0.0796,0.0928,0.9927
0x50,11,4,54.824,4.812,0.0889,0.0933,0.8862
0x50,11,4,54.824,4.812,0.0889,0.0933,0.8862
0x50,11,4,54.828,4.816,0.1528,-0.0151,0.8945
0x50,11,4,54.843,4.831,0.1528,-0.0151,0.8945
0x50,11,4,54.847,4.835,0.1001,-0.0771,1.0981
0x50,11,4,54.862,4.85,0.1001,-0.0771,1.0981
0x50,11,4,54.866,4.854,-0.0083,-0.0366,1.207
0x50,11,4,54.881,4.869,-0.0083,-0.0366,1.207
0x50,11,4,54.884,4.872,-0.1157,0.0723,1.0625
0x50,11,4,54.904,4.892,-0.1157,0.0723,1.0625
0x50,11,4,54.907,4.895,-0.0479,0.1313,0.8477
0x50,11,4,54.948,4.936,-0.0479,0.1313,0.8477
0x50,11,4,54.95,4.938,0.0493,0,0.771
0x50,11,4,54.953,4.941,0.0493,0,0.771
0x50,11,4,54.955,4.943,-0.0142,-0.165,0.9536
0x50,11,4,54.98,4.968,-0.0142,-0.165,0.9536
0x50,11,4,55.007,4.995,-0.0493,-0.125,1.271
0x50,11,4,55.017,5.005,-0.0493,-0.125,1.271
0x50,11,4,55.019,5.007,-0.0669,0.0034,1.2549
0x50,11,4,55.021,5.009,-0.0669,0.0034,1.2549
0x50,11,4,55.023,5.011,-0.043,0.1855,0.8838
0x50,11,4,55.079,5.067,-0.043,0.1855,0.8838
0x50,11,4,55.079,5.067,0.1992,0.1191,0.6421
0x50,11,4,55.079,5.067,0.1992,0.1191,0.6421
0x50,11,4,55.079,5.067,0.1992,0.1191,0.6421
0x50,11,4,55.079,5.067,0.0918,-0.1309,0.8101
0x50,11,4,55.079,5.067,0.0918,-0.1309,0.8101
0x50,11,4,55.079,5.067,-0.0713,-0.1167,1.2617
0x50,11,4,55.091,5.079,-0.0713,-0.1167,1.2617
0x50,11,4,55.091,5.079,0.0146,0.0391,1.479
0x50,11,4,55.107,5.095,0.0146,0.0391,1.479
0x50,11,4,55.107,5.095,-0.1245,0.1626,0.9243
0x50,11,4,55.118,5.106,-0.1245,0.1626,0.9243
0x50,11,4,55.129,5.117,0.0835,0.124,0.5283
0x50,11,4,55.146,5.134,0.0835,0.124,0.5283
0x50,11,4,55.156,5.144,0.0376,-0.1973,0.7114
0x50,11,4,55.168,5.156,0.0376,-0.1973,0.7114
0x50,11,4,55.175,5.163,-0.2612,-0.2056,1.2466
0x50,11,4,55.191,5.179,-0.2612,-0.2056,1.2466
0x50,11,4,55.194,5.182,0.0493,0.0156,1.6704
0x50,11,4,55.208,5.196,0.0493,0.0156,1.6704
0x50,11,4,55.215,5.203,-0.0083,0.1807,0.9658
0x50,11,4,55.23,5.218,-0.0083,0.1807,0.9658
0x50,11,4,55.271,5.259,0.1948,0.1846,0.3848
0x50,11,4,55.271,5.259,0.1948,0.1846,0.3848
0x50,11,4,55.271,5.259,0.1582,-0.1816,0.6826
0x50,11,4,55.271,5.259,0.1582,-0.1816,0.6826
0x50,11,4,55.271,5.259,-0.3232,-0.208,1.2798
0x50,11,4,55.276,5.264,-0.3232,-0.208,1.2798
0x50,11,4,55.291,5.279,0.0498,0.0659,1.7764
0x50,11,4,55.295,5.283,0.0498,0.0659,1.7764
0x50,11,4,55.311,5.299,-0.0439,0.21,0.9067
0x50,11,4,55.315,5.303,-0.0439,0.21,0.9067
0x50,11,4,55.34,5.328,0.1729,0.1533,0.2661
0x50,11,4,55.365,5.353,0.1729,0.1533,0.2661
0x50,11,4,55.379,5.367,0.0469,-0.3047,0.7852
0x50,11,4,55.382,5.37,0.0469,-0.3047,0.7852
0x50,11,4,55.384,5.372,-0.3901,-0.228,1.3115
0x50,11,4,55.387,5.375,-0.3901,-0.228,1.3115
0x50,11,4,55.389,5.377,0.2007,0.1318,1.6108
0x50,11,4,55.395,5.383,0.2007,0.1318,1.6108
0x50,11,4,55.418,5.406,-0.0127,0.272,0.917
0x50,11,4,55.418,5.406,-0.0127,0.272,0.917
0x50,11,4,55.463,5.451,0.2407,0.252,0.5068
0x50,11,4,55.463,5.451,0.2407,0.252,0.5068
0x50,11,4,55.463,5.451,0.0986,-0.0664,0.7148
0x50,11,4,55.464,5.452,0.0986,-0.0664,0.7148
0x50,11,4,55.482,5.47,-0.2388,-0.1064,1.1519
0x50,11,4,55.482,5.47,-0.2388,-0.1064,1.1519
0x50,11,4,55.499,5.487,-0.082,-0.0405,1.7666
0x50,11,4,55.501,5.489,-0.082,-0.0405,1.7666
0x50,11,4,55.515,5.503,-0.457,0.1729,0.7607
0x50,11,4,55.525,5.513,-0.457,0.1729,0.7607
0x50,11,4,55.535,5.523,0.1904,0.0723,0.5898
0x50,11,4,55.543,5.531,0.1904,0.0723,0.5898
0x50,11,4,55.588,5.576,0.0107,-0.1919,0.7539
0x50,11,4,55.59,5.578,0.0107,-0.1919,0.7539
0x50,11,4,55.596,5.584,-0.0898,-0.2788,1.2246
0x50,11,4,55.597,5.585,-0.0898,-0.2788,1.2246
0x50,11,4,55.6,5.588,0.5635,-0.1841,1.4321
0x50,11,4,55.603,5.591,0.5635,-0.1841,1.4321
0x50,11,4,55.605,5.593,0.2539,0.1411,0.7529
0x50,11,4,55.615,5.603,0.2539,0.1411,0.7529
0x50,11,4,55.658,5.646,0.5566,0.1797,0.7222
0x50,11,4,55.658,5.646,0.5566,0.1797,0.7222
0x50,11,4,55.658,5.646,0.0825,0.0415,0.8789
0x50,11,4,55.658,5.646,0.0825,0.0415,0.8789
0x50,11,4,55.668,5.656,-0.3838,0.0161,1.3306
0x50,11,4,55.672,5.66,-0.3838,0.0161,1.3306
0x50,11,4,55.688,5.676,-0.5518,0.186,1.1846
0x50,11,4,55.716,5.704,-0.5518,0.186,1.1846
0x50,11,4,55.717,5.705,-0.4731,0.2686,0.9258
0x50,11,4,55.755,5.743,-0.4731,0.2686,0.9258
0x50,11,4,55.755,5.743,-0.0811,0.1519,0.7935
0x50,11,4,55.758,5.746,-0.0811,0.1519,0.7935
0x50,11,4,55.76,5.748,-0.1592,-0.0957,0.7388
0x50,11,4,55.765,5.753,-0.1592,-0.0957,0.7388
0x50,11,4,55.765,5.753,-0.2153,-0.166,1.4419
0x50,11,4,55.784,5.772,-0.2153,-0.166,1.4419
0x50,11,4,55.794,5.782,0.0498,-0.0513,1.4458
0x50,11,4,55.804,5.792,0.0498,-0.0513,1.4458
0x50,11,4,55.849,5.837,0.418,0.1357,0.5313
0x50,11,4,55.849,5.837,0.418,0.1357,0.5313
0x50,11,4,55.849,5.837,0.6099,-0.0825,0.3726
0x50,11,4,55.849,5.837,0.6099,-0.0825,0.3726
0x50,11,4,55.866,5.854,-0.0303,-0.2476,1.3594
0x50,11,4,55.866,5.854,-0.0303,-0.2476,1.3594
0x50,11,4,55.869,5.857,-0.2754,-0.1821,1.875
0x50,11,4,55.884,5.872,-0.2754,-0.1821,1.875
0x50,11,4,55.89,5.878,-0.3979,0.1909,0.6616
0x50,11,4,55.907,5.895,-0.3979,0.1909,0.6616
0x50,11,4,55.907,5.895,0.0552,0.1963,0.2397
0x50,11,4,55.914,5.902,0.0552,0.1963,0.2397
0x50,11,4,55.924,5.912,-0.1392,-0.0083,0.9312
0x50,11,4,55.934,5.922,-0.1392,-0.0083,0.9312
0x50,11,4,55.95,5.938,-0.48,0.0073,1.853
0x50,11,4,55.953,5.941,-0.48,0.0073,1.853
0x50,11,4,55.963,5.951,-0.1025,0.2002,1.2944
0x50,11,4,55.973,5.961,-0.1025,0.2002,1.2944
0x50,11,4,55.984,5.972,0.1958,0.3657,0.1875
0x50,11,4,55.994,5.982,0.1958,0.3657,0.1875
0x50,11,4,56.001,5.989,0.6396,0.0098,0.5234
0x50,11,4,56.068,6.056,0.6396,0.0098,0.5234
0x50,11,4,56.068,6.056,-0.0928,-0.2056,1.5361
0x50,11,4,56.068,6.056,-0.0928,-0.2056,1.5361
0x50,11,4,56.068,6.056,-0.1045,-0.25,1.8564
0x50,11,4,56.068,6.056,-0.1045,-0.25,1.8564
0x50,11,4,56.084,6.072,-0.2319,0.0972,0.5176
0x50,11,4,56.092,6.08,-0.2319,0.0972,0.5176
0x50,11,4,56.118,6.106,0.2354,-0.0352,0.1475
0x50,11,4,56.123,6.111,0.2354,-0.0352,0.1475
0x50,11,4,56.126,6.114,-0.1685,-0.2568,1.0313
0x50,11,4,56.126,6.114,-0.1685,-0.2568,1.0313
0x50,11,4,56.131,6.119,-0.541,-0.1885,2.1709
0x50,11,4,56.14,6.128,-0.541,-0.1885,2.1709
0x50,11,4,56.158,6.146,-0.1094,0.1948,1.1284
0x50,11,4,56.16,6.148,-0.1094,0.1948,1.1284
0x50,11,4,56.17,6.158,0.1895,0.4009,-0.1689
0x50,11,4,56.181,6.169,0.1895,0.4009,-0.1689
0x50,11,4,56.191,6.179,0.5391,0.1011,0.6958
0x50,11,4,56.257,6.245,0.5391,0.1011,0.6958
0x50,11,4,56.257,6.245,-0.2544,0.041,1.9072
0x50,11,4,56.257,6.245,-0.2544,0.041,1.9072
0x50,11,4,56.257,6.245,-0.0796,0.0576,1.6118
0x50,11,4,56.257,6.245,-0.0796,0.0576,1.6118
0x50,11,4,56.257,6.245,-0.1108,0.2783,0.1792
0x50,11,4,56.257,6.245,-0.1108,0.2783,0.1792
0x50,11,4,56.261,6.249,0.3062,-0.0859,0.3042
0x50,11,4,56.271,6.259,0.3062,-0.0859,0.3042
0x50,11,4,56.282,6.27,-0.374,-0.2954,1.3882
0x50,11,4,56.293,6.281,-0.374,-0.2954,1.3882
0x50,11,4,56.303,6.291,-0.4355,-0.3184,2.1924
0x50,11,4,56.31,6.298,-0.4355,-0.3184,2.1924
0x50,11,4,56.32,6.308,-0.0913,0.1577,0.7251
0x50,11,4,56.332,6.32,-0.0913,0.1577,0.7251
0x50,11,4,56.342,6.33,0.3726,0.1602,-0.2324
0x50,11,4,56.364,6.352,0.3726,0.1602,-0.2324
0x50,11,4,56.364,6.352,0.3228,-0.1113,1.0166
0x50,11,4,56.367,6.355,0.3228,-0.1113,1.0166
0x50,11,4,56.382,6.37,-0.2476,-0.0947,2.3398
0x50,11,4,56.401,6.389,-0.2476,-0.0947,2.3398
0x50,11,4,56.407,6.395,-0.0337,0.1929,1.124
0x50,11,4,56.447,6.435,-0.0337,0.1929,1.124
0x50,11,4,56.448,6.436,0.0391,0.3486,-0.271
0x50,11,4,56.451,6.439,0.0391,0.3486,-0.271
0x50,11,4,56.476,6.464,0.2769,-0.0405,0.6235
0x50,11,4,56.488,6.476,0.2769,-0.0405,0.6235
0x50,11,4,56.49,6.478,-0.6318,-0.1167,1.8652
0x50,11,4,56.493,6.481,-0.6318,-0.1167,1.8652
0x50,11,4,56.495,6.483,-0.3076,-0.0762,1.771
0x50,11,4,56.497,6.485,-0.3076,-0.0762,1.771
0x50,11,4,56.508,6.496,-0.0688,0.2935,0.228
0x50,11,4,56.518,6.506,-0.0688,0.2935,0.228
0x50,11,4,56.529,6.517,0.4707,0.0225,0.1006
0x50,11,4,56.544,6.532,0.4707,0.0225,0.1006
0x50,11,4,56.546,6.534,0.0024,-0.1787,1.4844
0x50,11,4,56.549,6.537,0.0024,-0.1787,1.4844
0x50,11,4,56.568,6.556,-0.1167,-0.2129,2.3594
0x50,11,4,56.57,6.558,-0.1167,-0.2129,2.3594
0x50,11,4,56.58,6.568,-0.0503,0.2217,0.665
0x50,11,4,56.59,6.578,-0.0503,0.2217,0.665
0x50,11,4,56.601,6.589,0.2495,0.1621,-0.2754
0x50,11,4,56.607,6.595,0.2495,0.1621,-0.2754
0x50,11,4,56.623,6.611,0.1006,-0.1704,0.9878
0x50,11,4,56.626,6.614,0.1006,-0.1704,0.9878
0x50,11,4,56.642,6.63,-0.6367,-0.1982,2.272
0x50,11,4,56.647,6.635,-0.6367,-0.1982,2.272
0x50,11,4,56.69,6.678,-0.1812,0.1025,1.2236
0x50,11,4,56.691,6.679,-0.1812,0.1025,1.2236
0x50,11,4,56.691,6.679,0.0308,0.3447,-0.2568
0x50,11,4,56.702,6.69,0.0308,0.3447,-0.2568
0x50,11,4,56.706,6.694,0.4531,0.0127,0.4888
0x50,11,4,56.706,6.694,0.4531,0.0127,0.4888
0x50,11,4,56.726,6.714,-0.2817,-0.0571,1.9097
0x50,11,4,56.726,6.714,-0.2817,-0.0571,1.9097
0x50,11,4,56.745,6.733,-0.0386,-0.0322,1.9038
0x50,11,4,56.773,6.761,-0.0386,-0.0322,1.9038
0x50,11,4,56.775,6.763,-0.0386,0.3237,0.209
0x50,11,4,56.775,6.763,-0.0386,0.3237,0.209
0x50,11,4,56.788,6.776,0.3823,0.0249,0.0928
0x50,11,4,56.829,6.817,0.3823,0.0249,0.0928
0x50,11,4,56.884,6.872,-0.1875,-0.2397,1.4063
0x50,11,4,56.884,6.872,-0.1875,-0.2397,1.4063
0x50,11,4,56.889,6.877,-0.4683,-0.2949,2.3535
0x50,11,4,56.891,6.879,-0.4683,-0.2949,2.3535
0x50,11,4,56.894,6.882,-0.1709,0.1577,0.7788
0x50,11,4,56.896,6.884,-0.1709,0.1577,0.7788
0x50,11,4,56.899,6.887,0.2012,0.2021,-0.3228
0x50,11,4,56.901,6.889,0.2012,0.2021,-0.3228
0x50,11,4,56.904,6.892,0.3145,-0.1055,0.8682
0x50,11,4,56.906,6.894,0.3145,-0.1055,0.8682
0x50,11,4,56.909,6.897,-0.3584,-0.1079,2.25
0x50,11,4,56.911,6.899,-0.3584,-0.1079,2.25
0x50,11,4,56.915,6.903,-0.3584,-0.1079,2.25
0x50,11,4,56.93,6.918,0.0083,0.125,1.3413
0x50,11,4,56.936,6.924,0.0083,0.125,1.3413
0x50,11,4,56.948,6.936,0.0493,0.3657,-0.2031
0x50,11,4,56.96,6.948,0.0493,0.3657,-0.2031
0x50,11,4,56.964,6.952,0.4014,0.0029,0.459
0x50,11,4,56.979,6.967,0.4014,0.0029,0.459
0x50,11,4,56.985,6.973,-0.4375,-0.127,1.7617
0x50,11,4,57,6.988,-0.4375,-0.127,1.7617
0x50,11,4,57.004,6.992,-0.2949,-0.1421,2.0205
0x50,11,4,57.019,7.007,-0.2949,-0.1421,2.0205
0x50,11,4,57.076,7.064,-0.1895,0.2485,0.4214
0x50,11,4,57.076,7.064,-0.1895,0.2485,0.4214
0x50,11,4,57.076,7.064,0.3696,0.0674,-0.0264
0x50,11,4,57.076,7.064,0.3696,0.0674,-0.0264
0x50,11,4,57.078,7.066,0.0137,-0.1743,1.1909
0x50,11,4,57.084,7.072,0.0137,-0.1743,1.1909
0x50,11,4,57.096,7.084,-0.2612,-0.21,2.4033
0x50,11,4,57.102,7.09,-0.2612,-0.21,2.4033
0x50,11,4,57.118,7.106,-0.0391,0.166,0.9897
0x50,11,4,57.121,7.109,-0.0391,0.166,0.9897
0x50,11,4,57.136,7.124,0.1548,0.2734,-0.3799
0x50,11,4,57.143,7.131,0.1548,0.2734,-0.3799
0x50,11,4,57.158,7.146,0.3506,-0.0591,0.7192
0x50,11,4,57.161,7.149,0.3506,-0.0591,0.7192
0x50,11,4,57.187,7.175,-0.5601,-0.1123,2.041
0x50,11,4,57.211,7.199,-0.5601,-0.1123,2.041
0x50,11,4,57.224,7.212,-0.1279,-0.0024,1.6694
0x50,11,4,57.226,7.214,-0.1279,-0.0024,1.6694
0x50,11,4,57.263,7.251,-0.1323,0.3208,-0.0249
0x50,11,4,57.263,7.251,-0.1323,0.3208,-0.0249
0x50,11,4,57.263,7.251,0.3906,0.0469,0.2368
0x50,11,4,57.263,7.251,0.3906,0.0469,0.2368
0x50,11,4,57.263,7.251,-0.2466,-0.1284,1.5815
0x50,11,4,57.263,7.251,-0.2466,-0.1284,1.5815
0x50,11,4,57.271,7.259,-0.1836,-0.1724,2.3003
0x50,11,4,57.273,7.261,-0.1836,-0.1724,2.3003
0x50,11,4,57.288,7.276,-0.0488,0.2476,0.5972
0x50,11,4,57.308,7.296,-0.0488,0.2476,0.5972
0x50,11,4,57.308,7.296,0.293,0.1582,-0.2832
0x50,11,4,57.327,7.315,0.293,0.1582,-0.2832
0x50,11,4,57.327,7.315,0.1831,-0.1714,1.0806
0x50,11,4,57.348,7.336,0.1831,-0.1714,1.0806
0x50,11,4,57.348,7.336,-0.4946,-0.2256,2.3311
0x50,11,4,57.366,7.354,-0.4946,-0.2256,2.3311
0x50,11,4,57.366,7.354,-0.0859,0.0703,1.2021
0x50,11,4,57.385,7.373,-0.0859,0.0703,1.2021
0x50,11,4,57.392,7.38,-0.0015,0.292,-0.3296
0x50,11,4,57.406,7.394,-0.0015,0.292,-0.3296
0x50,11,4,57.411,7.399,0.3853,-0.022,0.5498
0x50,11,4,57.426,7.414,0.3853,-0.022,0.5498
0x50,11,4,57.43,7.418,-0.457,-0.0977,1.9131
0x50,11,4,57.445,7.433,-0.457,-0.0977,1.9131
0x50,11,4,57.449,7.437,-0.0967,-0.0527,1.9185
0x50,11,4,57.464,7.452,-0.0967,-0.0527,1.9185
0x50,11,4,57.508,7.496,-0.0513,0.3335,0.1963
0x50,11,4,57.508,7.496,-0.0513,0.3335,0.1963
0x50,11,4,57.51,7.498,0.395,0.1016,0.0332
0x50,11,4,57.513,7.501,0.395,0.1016,0.0332
0x50,11,4,57.515,7.503,-0.0791,-0.1538,1.4395
0x50,11,4,57.52,7.508,-0.0791,-0.1538,1.4395
0x50,11,4,57.523,7.511,-0.3467,-0.2168,2.3501
0x50,11,4,57.551,7.539,-0.3467,-0.2168,2.3501
0x50,11,4,57.576,7.564,-0.1025,0.1724,0.792
0x50,11,4,57.589,7.577,-0.1025,0.1724,0.792
0x50,11,4,57.592,7.58,0.1196,0.209,-0.3521
0x50,11,4,57.595,7.583,0.1196,0.209,-0.3521
0x50,11,4,57.597,7.585,0.292,-0.1426,0.8711
0x50,11,4,57.599,7.587,0.292,-0.1426,0.8711
0x50,11,4,57.603,7.591,-0.5137,-0.1729,2.1577
0x50,11,4,57.615,7.603,-0.5137,-0.1729,2.1577
0x50,11,4,57.621,7.609,-0.0225,0.0107,1.4805
0x50,11,4,57.636,7.624,-0.0225,0.0107,1.4805
0x50,11,4,57.655,7.643,-0.0146,0.3398,-0.1514
0x50,11,4,57.659,7.647,-0.0146,0.3398,-0.1514
0x50,11,4,57.7,7.688,0.4639,0.0405,0.3672
0x50,11,4,57.7,7.688,0.4639,0.0405,0.3672
0x50,11,4,57.7,7.688,-0.3184,-0.0952,1.7271
0x50,11,4,57.7,7.688,-0.3184,-0.0952,1.7271
0x50,11,4,57.714,7.702,-0.2134,-0.1279,2.1377
0x50,11,4,57.72,7.708,-0.2134,-0.1279,2.1377
0x50,11,4,57.733,7.721,-0.1284,0.2832,0.4697
0x50,11,4,57.739,7.727,-0.1284,0.2832,0.4697
0x50,11,4,57.753,7.741,0.2427,0.1411,-0.1582
0x50,11,4,57.757,7.745,0.2427,0.1411,-0.1582
0x50,11,4,57.773,7.761,0.0776,-0.1743,1.1851
0x50,11,4,57.782,7.77,0.0776,-0.1743,1.1851
0x50,11,4,57.792,7.78,-0.459,-0.2183,2.3052
0x50,11,4,57.798,7.786,-0.459,-0.2183,2.3052
0x50,11,4,57.814,7.802,-0.0308,0.1011,1.0835
0x50,11,4,57.816,7.804,-0.0308,0.1011,1.0835
0x50,11,4,57.822,7.81,0.0835,0.2769,-0.3418
0x50,11,4,57.836,7.824,0.0835,0.2769,-0.3418
0x50,11,4,57.84,7.828,0.4453,-0.0596,0.6611
0x50,11,4,57.891,7.879,0.4453,-0.0596,0.6611
0x50,11,4,57.891,7.879,-0.4365,-0.1206,1.9717
0x50,11,4,57.891,7.879,-0.4365,-0.1206,1.9717
0x50,11,4,57.891,7.879,-0.0928,-0.0498,1.7773
0x50,11,4,57.894,7.882,-0.0928,-0.0498,1.7773
0x50,11,4,57.933,7.921,-0.0938,0.3242,0.1211
0x50,11,4,57.955,7.943,-0.0938,0.3242,0.1211
0x50,11,4,57.958,7.946,0.3481,0.0747,0.1396
0x50,11,4,57.963,7.951,0.3481,0.0747,0.1396
0x50,11,4,57.963,7.951,-0.2007,-0.1421,1.4893
0x50,11,4,57.968,7.956,-0.2007,-0.1421,1.4893
0x50,11,4,57.968,7.956,-0.3379,-0.1865,2.3008
0x50,11,4,57.97,7.958,-0.3379,-0.1865,2.3008
0x50,11,4,57.98,7.968,-0.0781,0.2212,0.7246
0x50,11,4,58.003,7.991,-0.0781,0.2212,0.7246
0x50,11,4,58.003,7.991,0.2065,0.2075,-0.3311
0x50,11,4,58.022,8.01,0.2065,0.2075,-0.3311
0x50,11,4,58.028,8.016,0.3003,-0.1382,0.9688
0x50,11,4,58.042,8.03,0.3003,-0.1382,0.9688
0x50,11,4,58.081,8.069,-0.4419,-0.1772,2.231
0x50,11,4,58.081,8.069,-0.4419,-0.1772,2.231
0x50,11,4,58.081,8.069,-0.0435,0.0322,1.3252
0x50,11,4,58.083,8.071,-0.0435,0.0322,1.3252
0x50,11,4,58.086,8.074,-0.0093,0.3086,-0.1948
0x50,11,4,58.101,8.089,-0.0093,0.3086,-0.1948
0x50,11,4,58.105,8.093,0.4126,-0.0112,0.46
0x50,11,4,58.13,8.118,0.4126,-0.0112,0.46
0x50,11,4,58.151,8.139,-0.4272,-0.123,1.7632
0x50,11,4,58.154,8.142,-0.4272,-0.123,1.7632
0x50,11,4,58.157,8.145,-0.1963,-0.1211,2.0581
0x50,11,4,58.159,8.147,-0.1963,-0.1211,2.0581
0x50,11,4,58.162,8.15,-0.1104,0.3027,0.3809
0x50,11,4,58.172,8.16,-0.1104,0.3027,0.3809
0x50,11,4,58.18,8.168,0.311,0.1416,-0.0947
0x50,11,4,58.19,8.178,0.311,0.1416,-0.0947
0x50,11,4,58.2,8.188,0.0464,-0.146,1.2842
0x50,11,4,58.21,8.198,0.0464,-0.146,1.2842
0x50,11,4,58.22,8.208,-0.3789,-0.1924,2.3428
0x50,11,4,58.229,8.217,-0.3789,-0.1924,2.3428
0x50,11,4,58.239,8.227,-0.0483,0.1543,0.9614
0x50,11,4,58.249,8.237,-0.0483,0.1543,0.9614
0x50,11,4,58.32,8.308,0.1138,0.2466,-0.3354
0x50,11,4,58.321,8.309,0.1138,0.2466,-0.3354
0x50,11,4,58.325,8.313,0.3643,-0.0986,0.75
0x50,11,4,58.328,8.316,0.3643,-0.0986,0.75
0x50,11,4,58.33,8.318,-0.4985,-0.1611,2.0244
0x50,11,4,58.333,8.321,-0.4985,-0.1611,2.0244
0x50,11,4,58.335,8.323,-0.0928,-0.0376,1.6333
0x50,11,4,58.338,8.326,-0.0928,-0.0376,1.6333
0x50,11,4,58.352,8.34,-0.0708,0.3188,0.0103
0x50,11,4,58.354,8.342,-0.0708,0.3188,0.0103
0x50,11,4,58.369,8.357,0.3979,0.0513,0.2446
0x50,11,4,58.374,8.362,0.3979,0.0513,0.2446
0x50,11,4,58.389,8.377,-0.2368,-0.1226,1.5811
0x50,11,4,58.395,8.383,-0.2368,-0.1226,1.5811
0x50,11,4,58.41,8.398,-0.2432,-0.1528,2.2583
0x50,11,4,58.414,8.402,-0.2432,-0.1528,2.2583
0x50,11,4,58.429,8.417,-0.1011,0.2676,0.6113
0x50,11,4,58.432,8.42,-0.1011,0.2676,0.6113
0x50,11,4,58.448,8.436,0.2466,0.1816,-0.2417
0x50,11,4,58.452,8.44,0.2466,0.1816,-0.2417
0x50,11,4,58.46,8.448,0.1851,-0.1509,1.0747
0x50,11,4,58.47,8.458,0.1851,-0.1509,1.0747
0x50,11,4,58.506,8.494,-0.4663,-0.1992,2.2666
0x50,11,4,58.507,8.495,-0.4663,-0.1992,2.2666
0x50,11,4,58.507,8.495,-0.0762,0.0684,1.1909
0x50,11,4,58.507,8.495,-0.0762,0.0684,1.1909
0x50,11,4,58.521,8.509,0.021,0.2896,-0.2686
0x50,11,4,58.525,8.513,0.021,0.2896,-0.2686
0x50,11,4,58.54,8.528,0.4165,-0.041,0.5605
0x50,11,4,58.565,8.553,0.4165,-0.041,0.5605
0x50,11,4,58.568,8.556,-0.4116,-0.124,1.8472
0x50,11,4,58.574,8.562,-0.4116,-0.124,1.8472
0x50,11,4,58.574,8.562,-0.1084,-0.082,1.9067
0x50,11,4,58.604,8.592,-0.1084,-0.082,1.9067
0x50,11,4,58.607,8.595,-0.0874,0.3247,0.2471
0x50,11,4,58.614,8.602,-0.0874,0.3247,0.2471
0x50,11,4,58.616,8.604,0.3662,0.0986,0.0464
0x50,11,4,58.658,8.646,0.3662,0.0986,0.0464
0x50,11,4,58.698,8.686,-0.1011,-0.1465,1.3911
0x50,11,4,58.699,8.687,-0.1011,-0.1465,1.3911
0x50,11,4,58.699,8.687,-0.3711,-0.2002,2.3525
0x50,11,4,58.699,8.687,-0.3711,-0.2002,2.3525
0x50,11,4,58.7,8.688,-0.1074,0.1899,0.8296
0x50,11,4,58.703,8.691,-0.1074,0.1899,0.8296
0x50,11,4,58.705,8.693,0.1519,0.2246,-0.3379
0x50,11,4,58.715,8.703,0.1519,0.2246,-0.3379
0x50,11,4,58.727,8.715,0.312,-0.1191,0.8623
0x50,11,4,58.734,8.722,0.312,-0.1191,0.8623
0x50,11,4,58.743,8.731,-0.4678,-0.1636,2.1357
0x50,11,4,58.788,8.776,-0.4678,-0.1636,2.1357
0x50,11,4,58.79,8.778,-0.0332,0.0127,1.46
0x50,11,4,58.793,8.781,-0.0332,0.0127,1.46
0x50,11,4,58.795,8.783,-0.0073,0.3237,-0.1235
0x50,11,4,58.798,8.786,-0.0073,0.3237,-0.1235
0x50,11,4,58.801,8.789,-0.0073,0.3237,-0.1235
0x50,11,4,58.804,8.792,0.4375,0.0112,0.3701
0x50,11,4,58.819,8.807,0.4375,0.0112,0.3701
0x50,11,4,58.822,8.81,-0.3418,-0.127,1.6855
0x50,11,4,58.839,8.827,-0.3418,-0.127,1.6855
0x50,11,4,58.843,8.831,-0.2231,-0.147,2.1475
0x50,11,4,58.891,8.879,-0.2231,-0.147,2.1475
0x50,11,4,58.891,8.879,-0.1353,0.2876,0.4712
0x50,11,4,58.891,8.879,-0.1353,0.2876,0.4712
0x50,11,4,58.891,8.879,0.2759,0.145,-0.1436
0x50,11,4,58.905,8.893,0.2759,0.145,-0.1436
0x50,11,4,58.916,8.904,0.064,-0.1484,1.1938
0x50,11,4,58.924,8.912,0.064,-0.1484,1.1938
0x50,11,4,58.934,8.922,-0.4253,-0.1953,2.3403
0x50,11,4,58.944,8.932,-0.4253,-0.1953,2.3403
0x50,11,4,58.96,8.948,-0.0479,0.1343,1.0459
0x50,11,4,58.963,8.951,-0.0479,0.1343,1.0459
0x50,11,4,58.963,8.951,0.1074,0.2759,-0.3408
0x50,11,4,58.988,8.976,0.1074,0.2759,-0.3408
0x50,11,4,58.991,8.979,0.4136,-0.0737,0.6836
0x50,11,4,59.043,9.031,0.4136,-0.0737,0.6836
0x50,11,4,59.059,9.047,-0.4526,-0.1436,1.9736
0x50,11,4,59.061,9.049,-0.4526,-0.1436,1.9736
0x50,11,4,59.064,9.052,-0.1025,-0.0586,1.7163
0x50,11,4,59.066,9.054,-0.1025,-0.0586,1.7163
0x50,11,4,59.069,9.057,-0.0864,0.3198,0.0957
0x50,11,4,59.071,9.059,-0.0864,0.3198,0.0957
0x50,11,4,59.074,9.062,0.3774,0.0571,0.1782
0x50,11,4,59.082,9.07,0.3774,0.0571,0.1782
0x50,11,4,59.085,9.073,-0.2251,-0.1401,1.4946
0x50,11,4,59.137,9.125,-0.2251,-0.1401,1.4946
0x50,11,4,59.137,9.125,-0.3042,-0.1802,2.312
0x50,11,4,59.137,9.125,-0.3042,-0.1802,2.312
0x50,11,4,59.137,9.125,-0.0957,0.2441,0.6958
0x50,11,4,59.137,9.125,-0.0957,0.2441,0.6958
0x50,11,4,59.144,9.132,0.2354,0.2051,-0.2939
0x50,11,4,59.154,9.142,0.2354,0.2051,-0.2939
0x50,11,4,59.164,9.152,0.248,-0.1274,0.9985
0x50,11,4,59.174,9.162,0.248,-0.1274,0.9985
0x50,11,4,59.182,9.17,-0.4561,-0.1797,2.2407
0x50,11,4,59.196,9.184,-0.4561,-0.1797,2.2407
0x50,11,4,59.2,9.188,-0.0562,0.0566,1.2734
0x50,11,4,59.215,9.203,-0.0562,0.0566,1.2734
0x50,11,4,59.222,9.21,0.0137,0.3022,-0.23
0x50,11,4,59.237,9.225,0.0137,0.3022,-0.23
0x50,11,4,59.256,9.244,0.4126,-0.0283,0.4966
0x50,11,4,59.256,9.244,0.4126,-0.0283,0.4966
0x50,11,4,59.272,9.26,-0.4165,-0.1382,1.7876
0x50,11,4,59.281,9.269,-0.4165,-0.1382,1.7876
0x50,11,4,59.328,9.316,-0.1631,-0.1187,1.9951
0x50,11,4,59.328,9.316,-0.1631,-0.1187,1.9951
0x50,11,4,59.328,9.316,-0.1016,0.3091,0.3257
0x50,11,4,59.328,9.316,-0.1016,0.3091,0.3257
0x50,11,4,59.335,9.323,0.354,0.1162,-0.022
0x50,11,4,59.339,9.327,0.354,0.1162,-0.022
0x50,11,4,59.354,9.342,-0.0205,-0.1465,1.3223
0x50,11,4,59.358,9.346,-0.0205,-0.1465,1.3223
0x50,11,4,59.387,9.375,-0.3755,-0.1943,2.3613
0x50,11,4,59.411,9.399,-0.3755,-0.1943,2.3613
0x50,11,4,59.437,9.425,-0.0859,0.1792,0.8936
0x50,11,4,59.462,9.45,-0.0859,0.1792,0.8936
0x50,11,4,59.464,9.452,0.1284,0.25,-0.3389
0x50,11,4,59.467,9.455,0.1284,0.25,-0.3389
0x50,11,4,59.469,9.457,0.3364,-0.1001,0.8105
0x50,11,4,59.472,9.46,0.3364,-0.1001,0.8105
0x50,11,4,59.474,9.462,-0.4888,-0.1582,2.0586
0x50,11,4,59.477,9.465,-0.4888,-0.1582,2.0586
0x50,11,4,59.479,9.467,-0.0718,-0.0142,1.5366
0x50,11,4,59.518,9.506,-0.0718,-0.0142,1.5366
0x50,11,4,59.518,9.506,-0.0352,0.3252,-0.0298
0x50,11,4,59.518,9.506,-0.0352,0.3252,-0.0298
0x50,11,4,59.518,9.506,0.4229,0.0308,0.3076
0x50,11,4,59.518,9.506,0.4229,0.0308,0.3076
0x50,11,4,59.524,9.512,-0.2739,-0.1353,1.6118
0x50,11,4,59.543,9.531,-0.2739,-0.1353,1.6118
0x50,11,4,59.549,9.537,-0.2354,-0.1631,2.2095
0x50,11,4,59.563,9.551,-0.2354,-0.1631,2.2095
0x50,11,4,59.563,9.551,-0.1172,0.2671,0.5552
0x50,11,4,59.58,9.568,-0.1172,0.2671,0.5552
0x50,11,4,59.581,9.569,0.2637,0.1616,-0.187
0x50,11,4,59.591,9.579,0.2637,0.1616,-0.187
0x50,11,4,59.6,9.588,0.1343,-0.1514,1.123
0x50,11,4,59.621,9.609,0.1343,-0.1514,1.123
0x50,11,4,59.621,9.609,-0.4526,-0.1963,2.29
0x50,11,4,59.643,9.631,-0.4526,-0.1963,2.29
0x50,11,4,59.646,9.634,-0.061,0.1016,1.1162
0x50,11,4,59.661,9.649,-0.061,0.1016,1.1162
0x50,11,4,59.668,9.656,0.0625,0.2949,-0.29
0x50,11,4,59.704,9.692,0.0625,0.2949,-0.29
0x50,11,4,59.704,9.692,0.4136,-0.0425,0.6167
0x50,11,4,59.704,9.692,0.4136,-0.0425,0.6167
0x50,11,4,59.71,9.698,-0.4414,-0.123,1.8818
0x50,11,4,59.72,9.708,-0.4414,-0.123,1.8818
0x50,11,4,59.723,9.711,-0.1226,-0.0693,1.8257
0x50,11,4,59.73,9.718,-0.1226,-0.0693,1.8257
0x50,11,4,59.755,9.743,-0.0884,0.3232,0.2075
0x50,11,4,59.781,9.769,-0.0884,0.3232,0.2075
0x50,11,4,59.791,9.779,0.373,0.0781,0.1113
0x50,11,4,59.794,9.782,0.373,0.0781,0.1113
0x50,11,4,59.798,9.786,-0.1333,-0.1548,1.4185
0x50,11,4,59.8,9.788,-0.1333,-0.1548,1.4185
0x50,11,4,59.803,9.791,-0.3359,-0.2036,2.3301
0x50,11,4,59.807,9.795,-0.3359,-0.2036,2.3301
0x50,11,4,59.822,9.81,-0.0938,0.2031,0.7769
0x50,11,4,59.828,9.816,-0.0938,0.2031,0.7769
0x50,11,4,59.84,9.828,0.1938,0.2124,-0.3086
0x50,11,4,59.85,9.838,0.1938,0.2124,-0.3086
0x50,11,4,59.858,9.846,0.2842,-0.124,0.9146
0x50,11,4,59.873,9.861,0.2842,-0.124,0.9146
0x50,11,4,59.892,9.88,-0.4785,-0.1675,2.1631
0x50,11,4,59.898,9.886,-0.4785,-0.1675,2.1631
0x50,11,4,59.94,9.928,-0.0586,0.0352,1.3765
0x50,11,4,59.94,9.928,-0.0586,0.0352,1.3765
0x50,11,4,59.941,9.929,-0.0049,0.3252,-0.146
0x50,11,4,59.941,9.929,-0.0049,0.3252,-0.146
0x50,11,4,59.95,9.938,0.4165,0.0098,0.4238
0x50,11,4,59.954,9.942,0.4165,0.0098,0.4238
0x50,11,4,59.969,9.957,-0.3633,-0.1196,1.7163
0x50,11,4,59.975,9.963,-0.3633,-0.1196,1.7163
0x50,11,4,59.99,9.978,-0.1943,-0.1304,2.0908
0x50,11,4,59.994,9.982,-0.1943,-0.1304,2.0908
0x50,11,5,0.007,9.995,-0.1055,0.2949,0.4263
0x50,11,5,0.016,10.004,-0.1055,0.2949,0.4263
0x50,11,5,0.031,10.019,0.3247,0.1235,-0.0928
0x50,11,5,0.033,10.021,0.3247,0.1235,-0.0928
0x50,11,5,0.068,10.056,0.04,-0.1646,1.2324
0x50,11,5,0.07,10.058,0.04,-0.1646,1.2324
0x50,11,5,0.073,10.061,-0.415,-0.2168,2.3477
0x50,11,5,0.075,10.063,-0.415,-0.2168,2.3477
0x50,11,5,0.078,10.066,-0.0796,0.1367,0.98
0x50,11,5,0.088,10.076,-0.0796,0.1367,0.98
0x50,11,5,0.133,10.121,0.1069,0.2666,-0.3359
0x50,11,5,0.153,10.141,0.1069,0.2666,-0.3359
0x50,11,5,0.158,10.146,0.374,-0.0723,0.7266
0x50,11,5,0.16,10.148,0.374,-0.0723,0.7266
0x50,11,5,0.163,10.151,-0.4746,-0.1309,1.9976
0x50,11,5,0.168,10.156,-0.4746,-0.1309,1.9976
0x50,11,5,0.168,10.156,-0.0913,-0.0215,1.6567
0x50,11,5,0.185,10.173,-0.0913,-0.0215,1.6567
0x50,11,5,0.185,10.173,-0.061,0.3379,0.0635
0x50,11,5,0.202,10.19,-0.061,0.3379,0.0635
0x50,11,5,0.202,10.19,0.4014,0.0581,0.2339
0x50,11,5,0.206,10.194,0.4014,0.0581,0.2339
0x50,11,5,0.217,10.205,-0.2266,-0.1392,1.5361
0x50,11,5,0.245,10.233,-0.2266,-0.1392,1.5361
0x50,11,5,0.245,10.233,-0.2808,-0.186,2.2749
0x50,11,5,0.254,10.242,-0.2808,-0.186,2.2749
0x50,11,5,0.266,10.254,-0.1069,0.2368,0.6421
0x50,11,5,0.281,10.269,-0.1069,0.2368,0.6421
0x50,11,5,0.284,10.272,0.2451,0.1724,-0.2534
0x50,11,5,0.327,10.315,0.2451,0.1724,-0.2534
0x50,11,5,0.327,10.315,0.2041,-0.1528,1.0322
0x50,11,5,0.327,10.315,0.2041,-0.1528,1.0322
0x50,11,5,0.327,10.315,-0.4658,-0.1963,2.2554
0x50,11,5,0.338,10.326,-0.4658,-0.1963,2.2554
0x50,11,5,0.341,10.329,-0.0591,0.0693,1.2183
0x50,11,5,0.357,10.345,-0.0591,0.0693,1.2183
0x50,11,5,0.359,10.347,0.0308,0.313,-0.2446
0x50,11,5,0.367,10.355,0.0308,0.313,-0.2446
0x50,11,5,0.383,10.371,0.418,-0.0107,0.5386
0x50,11,5,0.386,10.374,0.418,-0.0107,0.5386
0x50,11,5,0.4,10.388,-0.4165,-0.1099,1.814
0x50,11,5,0.404,10.392,-0.4165,-0.1099,1.814
0x50,11,5,0.42,10.408,-0.1597,-0.085,1.9448
0x50,11,5,0.424,10.412,-0.1597,-0.085,1.9448
0x50,11,5,0.436,10.424,-0.1084,0.3184,0.3066
0x50,11,5,0.447,10.435,-0.1084,0.3184,0.3066
0x50,11,5,0.455,10.443,0.3496,0.1025,0.0303
0x50,11,5,0.513,10.501,0.3496,0.1025,0.0303
0x50,11,5,0.513,10.501,-0.0449,-0.1616,1.3374
0x50,11,5,0.529,10.517,-0.0449,-0.1616,1.3374
0x50,11,5,0.536,10.524,-0.3628,-0.2148,2.3428
0x50,11,5,0.539,10.527,-0.3628,-0.2148,2.3428
0x50,11,5,0.542,10.53,-0.0791,0.1646,0.8638
0x50,11,5,0.544,10.532,-0.0791,0.1646,0.8638
0x50,11,5,0.546,10.534,0.1592,0.2271,-0.3291
0x50,11,5,0.556,10.544,0.1592,0.2271,-0.3291
0x50,11,5,0.564,10.552,0.335,-0.1113,0.8286
0x50,11,5,0.564,10.552,0.335,-0.1113,0.8286
0x50,11,5,0.588,10.576,-0.4868,-0.1563,2.0781
0x50,11,5,0.588,10.576,-0.4868,-0.1563,2.0781
0x50,11,5,0.605,10.593,-0.0801,0.0068,1.5024
0x50,11,5,0.612,10.6,-0.0801,0.0068,1.5024
0x50,11,5,0.627,10.615,-0.0464,0.3384,-0.0425
0x50,11,5,0.63,10.618,-0.0464,0.3384,-0.0425
0x50,11,5,0.646,10.634,0.4082,0.0444,0.3389
0x50,11,5,0.652,10.64,0.4082,0.0444,0.3389
0x50,11,5,0.667,10.655,0.4082,0.0444,0.3389
0x50,11,5,0.669,10.657,-0.2979,-0.1133,1.625
0x50,11,5,0.675,10.663,-0.2979,-0.1133,1.625
0x50,11,5,0.7,10.688,-0.2388,-0.1421,2.1841
0x50,11,5,0.71,10.698,-0.2388,-0.1421,2.1841
0x50,11,5,0.715,10.703,-0.1079,0.2725,0.5479
0x50,11,5,0.759,10.747,-0.1079,0.2725,0.5479
0x50,11,5,0.759,10.747,0.2798,0.1494,-0.1704
0x50,11,5,0.759,10.747,0.2798,0.1494,-0.1704
0x50,11,5,0.759,10.747,0.1348,-0.165,1.1284
0x50,11,5,0.759,10.747,0.1348,-0.165,1.1284
0x50,11,5,0.762,10.75,-0.4424,-0.2139,2.2935
0x50,11,5,0.778,10.766,-0.4424,-0.2139,2.2935
0x50,11,5,0.797,10.785,-0.0601,0.0879,1.105
0x50,11,5,0.797,10.785,-0.0601,0.0879,1.105
0x50,11,5,0.815,10.803,0.0688,0.2783,-0.2896
0x50,11,5,0.816,10.804,0.0688,0.2783,-0.2896
0x50,11,5,0.821,10.809,0.4038,-0.0498,0.625
0x50,11,5,0.837,10.825,0.4038,-0.0498,0.625
0x50,11,5,0.887,10.875,-0.4458,-0.1206,1.8906
0x50,11,5,0.887,10.875,-0.4458,-0.1206,1.8906
0x50,11,5,0.899,10.887,-0.124,-0.0532,1.812
0x50,11,5,0.902,10.89,-0.124,-0.0532,1.812
0x50,11,5,0.904,10.892,-0.0903,0.3359,0.1987
0x50,11,5,0.907,10.895,-0.0903,0.3359,0.1987
0x50,11,5,0.949,10.937,0.3691,0.0923,0.126
0x50,11,5,0.949,10.937,0.3691,0.0923,0.126
0x50,11,5,0.949,10.937,-0.1328,-0.1401,1.4351
0x50,11,5,0.949,10.937,-0.1328,-0.1401,1.4351
0x50,11,5,0.953,10.941,-0.3398,-0.1914,2.3145
0x50,11,5,0.957,10.945,-0.3398,-0.1914,2.3145
0x50,11,5,0.97,10.958,-0.0967,0.2021,0.7671
0x50,11,5,0.981,10.969,-0.0967,0.2021,0.7671
0x50,11,5,0.995,10.983,0.1914,0.2041,-0.2964
0x50,11,5,0.998,10.986,0.1914,0.2041,-0.2964
0x50,11,5,1.002,10.99,0.2813,-0.1343,0.915
0x50,11,5,1.017,11.005,0.2813,-0.1343,0.915
0x50,11,5,1.02,11.008,-0.4746,-0.1797,2.1528
0x50,11,5,1.037,11.025,-0.4746,-0.1797,2.1528
0x50,11,5,1.04,11.028,-0.0532,0.0225,1.3779
0x50,11,5,1.065,11.053,-0.0532,0.0225,1.3779
0x50,11,5,1.068,11.056,0.0034,0.3213,-0.1323
0x50,11,5,1.073,11.061,0.0034,0.3213,-0.1323
0x50,11,5,1.087,11.075,0.4277,0.0137,0.4253
0x50,11,5,1.089,11.077,0.4277,0.0137,0.4253
0x50,11,5,1.143,11.131,-0.3496,-0.1172,1.7031
0x50,11,5,1.143,11.131,-0.3496,-0.1172,1.7031
0x50,11,5,1.143,11.131,-0.2075,-0.1226,2.0884
0x50,11,5,1.143,11.131,-0.2075,-0.1226,2.0884
0x50,11,5,1.149,11.137,-0.1206,0.2954,0.4468
0x50,11,5,1.164,11.152,-0.1206,0.2954,0.4468
0x50,11,5,1.168,11.156,0.2993,0.1353,-0.0869
0x50,11,5,1.18,11.168,0.2993,0.1353,-0.0869
0x50,11,5,1.18,11.168,0.0439,-0.1538,1.2129
0x50,11,5,1.192,11.18,0.0439,-0.1538,1.2129
0x50,11,5,1.202,11.19,-0.4253,-0.2051,2.3208
0x50,11,5,1.26,11.248,-0.4253,-0.2051,2.3208
0x50,11,5,1.265,11.253,-0.0649,0.1274,1.0093
0x50,11,5,1.268,11.256,-0.0649,0.1274,1.0093
0x50,11,5,1.27,11.258,0.1128,0.2632,-0.3169
0x50,11,5,1.275,11.263,0.1128,0.2632,-0.3169
0x50,11,5,1.28,11.268,0.3965,-0.0737,0.7075
0x50,11,5,1.283,11.271,0.3965,-0.0737,0.7075
0x50,11,5,1.29,11.278,-0.4473,-0.1411,1.9712
0x50,11,5,1.337,11.325,-0.4473,-0.1411,1.9712
0x50,11,5,1.338,11.326,-0.0938,-0.041,1.6821
0x50,11,5,1.338,11.326,-0.0938,-0.041,1.6821
0x50,11,5,1.338,11.326,-0.0771,0.3286,0.0952
0x50,11,5,1.35,11.338,-0.0771,0.3286,0.0952
0x50,11,5,1.353,11.341,0.3794,0.061,0.2144
0x50,11,5,1.355,11.343,0.3794,0.061,0.2144
0x50,11,5,1.358,11.346,-0.2227,-0.1387,1.5029
0x50,11,5,1.373,11.361,-0.2227,-0.1387,1.5029
0x50,11,5,1.379,11.367,-0.3135,-0.1768,2.2837
0x50,11,5,1.392,11.38,-0.3135,-0.1768,2.2837
0x50,11,5,1.399,11.387,-0.1035,0.2368,0.6846
0x50,11,5,1.409,11.397,-0.1035,0.2368,0.6846
0x50,11,5,1.42,11.408,0.2378,0.1938,-0.2646
0x50,11,5,1.43,11.418,0.2378,0.1938,-0.2646
0x50,11,5,1.453,11.441,0.2466,-0.1333,1.0024
0x50,11,5,1.453,11.441,0.2466,-0.1333,1.0024
0x50,11,5,1.456,11.444,-0.4487,-0.1831,2.2217
0x50,11,5,1.472,11.46,-0.4487,-0.1831,2.2217
0x50,11,5,1.527,11.515,-0.0527,0.0547,1.2544
0x50,11,5,1.527,11.515,-0.0527,0.0547,1.2544
0x50,11,5,1.527,11.515,0.0137,0.3057,-0.2051
0x50,11,5,1.527,11.515,0.0137,0.3057,-0.2051
0x50,11,5,1.53,11.518,0.4072,-0.0181,0.5103
0x50,11,5,1.536,11.524,0.4072,-0.0181,0.5103
0x50,11,5,1.562,11.55,-0.4092,-0.1289,1.7627
0x50,11,5,1.564,11.552,-0.4092,-0.1289,1.7627
0x50,11,5,1.566,11.554,-0.1812,-0.1094,1.9951
0x50,11,5,1.596,11.584,-0.1812,-0.1094,1.9951
0x50,11,5,1.622,11.61,-0.1064,0.3062,0.3579
0x50,11,5,1.633,11.621,-0.1064,0.3062,0.3579
0x50,11,5,1.635,11.623,0.3467,0.1177,-0.0156
0x50,11,5,1.638,11.626,0.3467,0.1177,-0.0156
0x50,11,5,1.64,11.628,-0.0068,-0.1484,1.3008
0x50,11,5,1.643,11.631,-0.0068,-0.1484,1.3008
0x50,11,5,1.645,11.633,-0.3779,-0.1963,2.3457
0x50,11,5,1.649,11.637,-0.3779,-0.1963,2.3457
0x50,11,5,1.659,11.647,-0.0791,0.1636,0.9048
0x50,11,5,1.669,11.657,-0.0791,0.1636,0.9048
0x50,11,5,1.679,11.667,0.1323,0.2505,-0.3276
0x50,11,5,1.691,11.679,0.1323,0.2505,-0.3276
0x50,11,5,1.696,11.684,0.3481,-0.0942,0.7876
0x50,11,5,1.706,11.694,0.3481,-0.0942,0.7876
0x50,11,5,1.721,11.709,-0.4839,-0.1548,2.0278
0x50,11,5,1.725,11.713,-0.4839,-0.1548,2.0278
0x50,11,5,1.767,11.755,-0.083,-0.022,1.5757
0x50,11,5,1.767,11.755,-0.083,-0.022,1.5757
0x50,11,5,1.767,11.755,-0.0522,0.3262,0.0146
0x50,11,5,1.78,11.768,-0.0522,0.3262,0.0146
0x50,11,5,1.78,11.768,0.4185,0.0444,0.2852
0x50,11,5,1.796,11.784,0.4185,0.0444,0.2852
0x50,11,5,1.796,11.784,-0.2505,-0.1333,1.5693
0x50,11,5,1.805,11.793,-0.2505,-0.1333,1.5693
0x50,11,5,1.82,11.808,-0.2539,-0.1636,2.2363
0x50,11,5,1.842,11.83,-0.2539,-0.1636,2.2363
0x50,11,5,1.844,11.832,-0.1157,0.2549,0.6006
0x50,11,5,1.86,11.848,-0.1157,0.2549,0.6006
0x50,11,5,1.863,11.851,0.2515,0.1714,-0.2085
0x50,11,5,1.878,11.866,0.2515,0.1714,-0.2085
0x50,11,5,1.884,11.872,0.1655,-0.1445,1.0742
0x50,11,5,1.899,11.887,0.1655,-0.1445,1.0742
0x50,11,5,1.905,11.893,-0.4741,-0.1904,2.2563
0x50,11,5,1.915,11.903,-0.4741,-0.1904,2.2563
0x50,11,5,1.956,11.944,-0.063,0.0801,1.1777
0x50,11,5,1.956,11.944,-0.063,0.0801,1.1777
0x50,11,5,1.956,11.944,0.0435,0.3013,-0.2544
0x50,11,5,1.963,11.951,0.0435,0.3013,-0.2544
0x50,11,5,1.988,11.976,0.4272,-0.0269,0.5703
0x50,11,5,2.013,12.001,0.4272,-0.0269,0.5703
0x50,11,5,2.028,12.016,-0.4038,-0.1255,1.8267
0x50,11,5,2.03,12.018,-0.4038,-0.1255,1.8267
0x50,11,5,2.033,12.021,-0.1328,-0.0889,1.9019
0x50,11,5,2.035,12.023,-0.1328,-0.0889,1.9019
0x50,11,5,2.038,12.026,-0.1035,0.3115,0.2808
0x50,11,5,2.04,12.028,-0.1035,0.3115,0.2808
0x50,11,5,2.043,12.031,0.3525,0.0952,0.0591
0x50,11,5,2.045,12.033,0.3525,0.0952,0.0591
0x50,11,5,2.055,12.043,-0.0815,-0.1543,1.3501
0x50,11,5,2.065,12.053,-0.0815,-0.1543,1.3501
0x50,11,5,2.076,12.064,-0.3862,-0.2002,2.3354
0x50,11,5,2.086,12.074,-0.3862,-0.2002,2.3354
0x50,11,5,2.106,12.094,-0.0928,0.1758,0.8589
0x50,11,5,2.106,12.094,-0.0928,0.1758,0.8589
0x50,11,5,2.14,12.128,0.1597,0.2363,-0.3213
0x50,11,5,2.14,12.128,0.1597,0.2363,-0.3213
0x50,11,5,2.146,12.134,0.3413,-0.0986,0.8418
0x50,11,5,2.155,12.143,0.3413,-0.0986,0.8418
0x50,11,5,2.165,12.153,-0.459,-0.1509,2.0796
0x50,11,5,2.173,12.161,-0.459,-0.1509,2.0796
0x50,11,5,2.188,12.176,-0.0562,0.0054,1.4888
0x50,11,5,2.191,12.179,-0.0562,0.0054,1.4888
0x50,11,5,2.207,12.195,-0.0337,0.3267,-0.0474
0x50,11,5,2.21,12.198,-0.0337,0.3267,-0.0474
0x50,11,5,2.225,12.213,0.4126,0.0278,0.3491
0x50,11,5,2.231,12.219,0.4126,0.0278,0.3491
0x50,11,5,2.246,12.234,-0.3076,-0.1367,1.6108
0x50,11,5,2.25,12.238,-0.3076,-0.1367,1.6108
0x50,11,5,2.265,12.253,-0.2598,-0.1587,2.1807
0x50,11,5,2.267,12.255,-0.2598,-0.1587,2.1807
0x50,11,5,2.275,12.263,-0.125,0.2607,0.5552
0x50,11,5,2.285,12.273,-0.125,0.2607,0.5552
0x50,11,5,2.3,12.288,0.27,0.1577,-0.1675
0x50,11,5,2.303,12.291,0.27,0.1577,-0.1675
0x50,11,5,2.33,12.318,0.1411,-0.145,1.1245
0x50,11,5,2.386,12.374,0.1411,-0.145,1.1245
0x50,11,5,2.386,12.374,-0.4307,-0.1855,2.2803
0x50,11,5,2.386,12.374,-0.4307,-0.1855,2.2803
0x50,11,5,2.386,12.374,-0.0503,0.1025,1.1104
0x50,11,5,2.386,12.374,-0.0503,0.1025,1.1104
0x50,11,5,2.386,12.374,0.0693,0.29,-0.2695
0x50,11,5,2.406,12.394,0.0693,0.29,-0.2695
0x50,11,5,2.406,12.394,0.4092,-0.0347,0.6201
0x50,11,5,2.411,12.399,0.4092,-0.0347,0.6201
0x50,11,5,2.411,12.399,-0.4395,-0.1284,1.8521
0x50,11,5,2.435,12.423,-0.4395,-0.1284,1.8521
0x50,11,5,2.435,12.423,-0.1304,-0.0835,1.8413
0x50,11,5,2.463,12.451,-0.1304,-0.0835,1.8413
0x50,11,5,2.466,12.454,-0.103,0.3071,0.2524
0x50,11,5,2.47,12.458,-0.103,0.3071,0.2524
0x50,11,5,2.495,12.483,0.3418,0.0894,0.0903
0x50,11,5,2.498,12.486,0.3418,0.0894,0.0903
0x50,11,5,2.5,12.488,0.3418,0.0894,0.0903
0x50,11,5,2.516,12.504,-0.0991,-0.1489,1.3862
0x50,11,5,2.519,12.507,-0.0991,-0.1489,1.3862
0x50,11,5,2.574,12.562,-0.3643,-0.188,2.3013
0x50,11,5,2.574,12.562,-0.3643,-0.188,2.3013
0x50,11,5,2.574,12.562,-0.0532,0.1846,0.8477
0x50,11,5,2.599,12.587,-0.0532,0.1846,0.8477
0x50,11,5,2.63,12.618,0.1602,0.2275,-0.3232
0x50,11,5,2.633,12.621,0.1602,0.2275,-0.3232
0x50,11,5,2.635,12.623,0.3359,-0.1094,0.8838
0x50,11,5,2.643,12.631,0.3359,-0.1094,0.8838
0x50,11,5,2.645,12.633,-0.4863,-0.1523,2.0762
0x50,11,5,2.65,12.638,-0.4863,-0.1523,2.0762
0x50,11,5,2.652,12.64,-0.0522,0.001,1.4585
0x50,11,5,2.654,12.642,-0.0522,0.001,1.4585
0x50,11,5,2.657,12.645,-0.0415,0.3198,-0.0508
0x50,11,5,2.659,12.647,-0.0415,0.3198,-0.0508
0x50,11,5,2.662,12.65,0.395,0.0254,0.3696
0x50,11,5,2.672,12.66,0.395,0.0254,0.3696
0x50,11,5,2.698,12.686,-0.3115,-0.1245,1.6309
0x50,11,5,2.723,12.711,-0.3115,-0.1245,1.6309
0x50,11,5,2.763,12.751,-0.251,-0.145,2.1377
0x50,11,5,2.763,12.751,-0.251,-0.145,2.1377
0x50,11,5,2.763,12.751,-0.085,0.2671,0.5649
0x50,11,5,2.763,12.751,-0.085,0.2671,0.5649
0x50,11,5,2.763,12.751,0.2588,0.1548,-0.167
0x50,11,5,2.763,12.751,0.2588,0.1548,-0.167
0x50,11,5,2.772,12.76,0.1455,-0.147,1.1509
0x50,11,5,2.782,12.77,0.1455,-0.147,1.1509
0x50,11,5,2.782,12.77,-0.4512,-0.1855,2.25
0x50,11,5,2.804,12.792,-0.4512,-0.1855,2.25
0x50,11,5,2.804,12.792,-0.0386,0.0947,1.1143
0x50,11,5,2.823,12.811,-0.0386,0.0947,1.1143
0x50,11,5,2.826,12.814,0.0537,0.2832,-0.272
0x50,11,5,2.841,12.829,0.0537,0.2832,-0.272
0x50,11,5,2.847,12.835,0.4014,-0.0449,0.6348
0x50,11,5,2.859,12.847,0.4014,-0.0449,0.6348
0x50,11,5,2.869,12.857,-0.4424,-0.124,1.8638
0x50,11,5,2.878,12.866,-0.4424,-0.124,1.8638
0x50,11,5,2.89,12.878,-0.1289,-0.0771,1.8149
0x50,11,5,2.905,12.893,-0.1289,-0.0771,1.8149
0x50,11,5,2.907,12.895,-0.0796,0.3125,0.248
0x50,11,5,2.913,12.901,-0.0796,0.3125,0.248
0x50,11,5,2.95,12.938,0.3516,0.0898,0.1006
0x50,11,5,2.95,12.938,0.3516,0.0898,0.1006
0x50,11,5,2.95,12.938,-0.0962,-0.145,1.4067
0x50,11,5,2.952,12.94,-0.0962,-0.145,1.4067
0x50,11,5,2.958,12.946,-0.3643,-0.1841,2.2773
0x50,11,5,2.971,12.959,-0.3643,-0.1841,2.2773
0x50,11,5,2.979,12.967,-0.0688,0.189,0.8252
0x50,11,5,2.994,12.982,-0.0688,0.189,0.8252
0x50,11,5,2.998,12.986,0.1528,0.2236,-0.3013
0x50,11,5,3.013,13.001,0.1528,0.2236,-0.3013
0x50,11,5,3.032,13.02,0.312,-0.1089,0.894
0x50,11,5,3.032,13.02,0.312,-0.1089,0.894
0x50,11,5,3.038,13.026,-0.4849,-0.1484,2.085
0x50,11,5,3.063,13.051,-0.4849,-0.1484,2.085
0x50,11,5,3.088,13.076,-0.0469,0.0117,1.457
0x50,11,5,3.101,13.089,-0.0469,0.0117,1.457
0x50,11,5,3.105,13.093,-0.0117,0.3213,-0.0605
0x50,11,5,3.107,13.095,-0.0117,0.3213,-0.0605
0x50,11,5,3.111,13.099,0.4229,0.0239,0.3691
0x50,11,5,3.116,13.104,0.4229,0.0239,0.3691
0x50,11,5,3.131,13.119,-0.2925,-0.1309,1.6558
0x50,11,5,3.135,13.123,-0.2925,-0.1309,1.6558
0x50,11,5,3.15,13.138,-0.2407,-0.1577,2.1304
0x50,11,5,3.194,13.182,-0.2407,-0.1577,2.1304
0x50,11,5,3.194,13.182,-0.1113,0.2549,0.5356
0x50,11,5,3.194,13.182,-0.1113,0.2549,0.5356
0x50,11,5,3.194,13.182,0.2529,0.1431,-0.1543
0x50,11,5,3.197,13.185,0.2529,0.1431,-0.1543
0x50,11,5,3.213,13.201,0.1035,-0.1514,1.1499
0x50,11,5,3.215,13.203,0.1035,-0.1514,1.1499
0x50,11,5,3.217,13.205,-0.4761,-0.1865,2.2505
0x50,11,5,3.234,13.222,-0.4761,-0.1865,2.2505
0x50,11,5,3.268,13.256,-0.0513,0.1001,1.1221
0x50,11,5,3.27,13.258,-0.0513,0.1001,1.1221
0x50,11,5,3.273,13.261,0.0664,0.293,-0.2759
0x50,11,5,3.275,13.263,0.0664,0.293,-0.2759
0x50,11,5,3.278,13.266,0.4297,-0.0288,0.6235
0x50,11,5,3.288,13.276,0.4297,-0.0288,0.6235
0x50,11,5,3.298,13.286,-0.4204,-0.1094,1.8672
0x50,11,5,3.31,13.298,-0.4204,-0.1094,1.8672
0x50,11,5,3.32,13.308,-0.1221,-0.0781,1.832
0x50,11,5,3.326,13.314,-0.1221,-0.0781,1.832
0x50,11,5,3.342,13.33,-0.0952,0.3042,0.252
0x50,11,5,3.38,13.368,-0.0952,0.3042,0.252
0x50,11,5,3.381,13.369,0.3511,0.0776,0.0986
0x50,11,5,3.381,13.369,0.3511,0.0776,0.0986
0x50,11,5,3.381,13.369,-0.1074,-0.1567,1.3877
0x50,11,5,3.401,13.389,-0.1074,-0.1567,1.3877
0x50,11,5,3.401,13.389,-0.3848,-0.2017,2.2832
0x50,11,5,3.46,13.448,-0.3848,-0.2017,2.2832
0x50,11,5,3.46,13.448,-0.0801,0.1738,0.8511
0x50,11,5,3.465,13.453,-0.0801,0.1738,0.8511
0x50,11,5,3.467,13.455,0.1563,0.2275,-0.3135
0x50,11,5,3.471,13.459,0.1563,0.2275,-0.3135
0x50,11,5,3.472,13.46,0.3477,-0.0977,0.874
0x50,11,5,3.475,13.463,0.3477,-0.0977,0.874
0x50,11,5,3.486,13.474,-0.4609,-0.1362,2.0732
0x50,11,5,3.496,13.484,-0.4609,-0.1362,2.0732
0x50,11,5,3.503,13.491,-0.0449,0.0073,1.4741
0x50,11,5,3.518,13.506,-0.0449,0.0073,1.4741
0x50,11,5,3.521,13.509,-0.0449,0.3252,-0.0435
0x50,11,5,3.57,13.558,-0.0449,0.3252,-0.0435
0x50,11,5,3.57,13.558,0.4043,0.0303,0.3647
0x50,11,5,3.57,13.558,0.4043,0.0303,0.3647
0x50,11,5,3.57,13.558,-0.311,-0.1245,1.6138
0x50,11,5,3.57,13.558,-0.311,-0.1245,1.6138
0x50,11,5,3.578,13.566,-0.2729,-0.1606,2.146
0x50,11,5,3.588,13.576,-0.2729,-0.1606,2.146
0x50,11,5,3.595,13.583,-0.1108,0.2471,0.5928
0x50,11,5,3.61,13.598,-0.1108,0.2471,0.5928
0x50,11,5,3.614,13.602,0.2598,0.1523,-0.1758
0x50,11,5,3.629,13.617,0.2598,0.1523,-0.1758
0x50,11,5,3.632,13.62,0.1821,-0.1489,1.1187
0x50,11,5,3.647,13.635,0.1821,-0.1489,1.1187
0x50,11,5,3.654,13.642,-0.4414,-0.1826,2.23
0x50,11,5,3.669,13.657,-0.4414,-0.1826,2.23
0x50,11,5,3.672,13.66,-0.0273,0.0806,1.1538
0x50,11,5,3.688,13.676,-0.0273,0.0806,1.1538
0x50,11,5,3.709,13.697,0.0366,0.2944,-0.2573
0x50,11,5,3.711,13.699,0.0366,0.2944,-0.2573
0x50,11,5,3.757,13.745,0.416,-0.0293,0.6064
0x50,11,5,3.757,13.745,0.416,-0.0293,0.6064
0x50,11,5,3.757,13.745,-0.4395,-0.1138,1.8184
0x50,11,5,3.757,13.745,-0.4395,-0.1138,1.8184
0x50,11,5,3.767,13.755,-0.165,-0.0869,1.8711
0x50,11,5,3.77,13.758,-0.165,-0.0869,1.8711
0x50,11,5,3.795,13.783,-0.1113,0.3071,0.3164
0x50,11,5,3.822,13.81,-0.1113,0.3071,0.3164
0x50,11,5,3.839,13.827,0.3384,0.1016,0.0605
0x50,11,5,3.842,13.83,0.3384,0.1016,0.0605
0x50,11,5,3.844,13.832,-0.042,-0.1431,1.3569
0x50,11,5,3.847,13.835,-0.042,-0.1431,1.3569
0x50,11,5,3.849,13.837,-0.3657,-0.1865,2.2852
0x50,11,5,3.852,13.84,-0.3657,-0.1865,2.2852
0x50,11,5,3.854,13.842,-0.0537,0.1616,0.8765
0x50,11,5,3.869,13.857,-0.0537,0.1616,0.8765
0x50,11,5,3.873,13.861,0.1484,0.2295,-0.3145
0x50,11,5,3.908,13.896,0.1484,0.2295,-0.3145
0x50,11,5,3.913,13.901,0.3555,-0.1069,0.8428
0x50,11,5,3.915,13.903,0.3555,-0.1069,0.8428
0x50,11,5,3.918,13.906,-0.4814,-0.1572,2.0293
0x50,11,5,3.926,13.914,-0.4814,-0.1572,2.0293
0x50,11,5,3.942,13.93,-0.0869,-0.021,1.5269
0x50,11,5,3.944,13.932,-0.0869,-0.021,1.5269
0x50,11,5,3.959,13.947,-0.0645,0.3203,0.0181
0x50,11,5,3.997,13.985,-0.0645,0.3203,0.0181
0x50,11,5,3.997,13.985,0.394,0.0508,0.3184
0x50,11,5,3.997,13.985,0.394,0.0508,0.3184
0x50,11,5,3.997,13.985,-0.2622,-0.1152,1.5742
0x50,11,5,4.009,13.997,-0.2622,-0.1152,1.5742
0x50,11,5,4.012,14,-0.2734,-0.1416,2.188
0x50,11,5,4.026,14.014,-0.2734,-0.1416,2.188
0x50,11,5,4.03,14.018,-0.0977,0.2505,0.6245
0x50,11,5,4.051,14.039,-0.0977,0.2505,0.6245
0x50,11,5,4.051,14.039,0.2461,0.1753,-0.1982
0x50,11,5,4.069,14.057,0.2461,0.1753,-0.1982
0x50,11,5,4.085,14.073,0.2109,-0.1445,1.0801
0x50,11,5,4.089,14.077,0.2109,-0.1445,1.0801
0x50,11,5,4.104,14.092,-0.4565,-0.1865,2.1924
0x50,11,5,4.111,14.099,-0.4565,-0.1865,2.1924
0x50,11,5,4.119,14.107,-0.0508,0.0527,1.1982
0x50,11,5,4.134,14.122,-0.0508,0.0527,1.1982
0x50,11,5,4.144,14.132,0.0249,0.2856,-0.2021
0x50,11,5,4.186,14.174,0.0249,0.2856,-0.2021
0x50,11,5,4.195,14.183,0.4141,-0.0273,0.5576
0x50,11,5,4.204,14.192,0.4141,-0.0273,0.5576
0x50,11,5,4.206,14.194,-0.4087,-0.1255,1.771
0x50,11,5,4.209,14.197,-0.4087,-0.1255,1.771
0x50,11,5,4.211,14.199,-0.167,-0.0977,1.9438
0x50,11,5,4.216,14.204,-0.167,-0.0977,1.9438
0x50,11,5,4.22,14.208,-0.1055,0.3027,0.356
0x50,11,5,4.223,14.211,-0.1055,0.3027,0.356
0x50,11,5,4.234,14.222,0.332,0.124,0.0181
0x50,11,5,4.242,14.23,0.332,0.124,0.0181
0x50,11,5,4.251,14.239,-0.0063,-0.1362,1.3086
0x50,11,5,4.267,14.255,-0.0063,-0.1362,1.3086
0x50,11,5,4.269,14.257,-0.3979,-0.1753,2.2729
0x50,11,5,4.285,14.273,-0.3979,-0.1753,2.2729
0x50,11,5,4.289,14.277,-0.0747,0.1523,0.9263
0x50,11,5,4.304,14.292,-0.0747,0.1523,0.9263
0x50,11,5,4.322,14.31,-0.0747,0.1523,0.9263
0x50,11,5,4.328,14.316,0.1182,0.2432,-0.2876
0x50,11,5,4.378,14.366,0.1182,0.2432,-0.2876
0x50,11,5,4.378,14.366,0.3657,-0.0928,0.7896
0x50,11,5,4.378,14.366,0.3657,-0.0928,0.7896
0x50,11,5,4.378,14.366,-0.4683,-0.1519,1.9717
0x50,11,5,4.38,14.368,-0.4683,-0.1519,1.9717
0x50,11,5,4.38,14.368,-0.0781,-0.0405,1.6084
0x50,11,5,4.402,14.39,-0.0781,-0.0405,1.6084
0x50,11,5,4.402,14.39,-0.0557,0.311,0.0786
0x50,11,5,4.424,14.412,-0.0557,0.311,0.0786
0x50,11,5,4.427,14.415,0.3994,0.0562,0.2656
0x50,11,5,4.439,14.427,0.3994,0.0562,0.2656
0x50,11,5,4.449,14.437,-0.2202,-0.1299,1.5142
0x50,11,5,4.459,14.447,-0.2202,-0.1299,1.5142
0x50,11,5,4.47,14.458,-0.3008,-0.1553,2.2202
0x50,11,5,4.485,14.473,-0.3008,-0.1553,2.2202
0x50,11,5,4.487,14.475,-0.1128,0.2358,0.6753
0x50,11,5,4.49,14.478,-0.1128,0.2358,0.6753
0x50,11,5,4.501,14.489,0.2178,0.1909,-0.2192
0x50,11,5,4.511,14.499,0.2178,0.1909,-0.2192
0x50,11,5,4.519,14.507,0.2275,-0.1289,1.0254
0x50,11,5,4.544,14.532,0.2275,-0.1289,1.0254
0x50,11,5,4.569,14.557,-0.4678,-0.1685,2.1631
0x50,11,5,4.616,14.604,-0.4678,-0.1685,2.1631
0x50,11,5,4.617,14.605,-0.0498,0.0493,1.2729
0x50,11,5,4.617,14.605,-0.0498,0.0493,1.2729
0x50,11,5,4.617,14.605,0.0171,0.2979,-0.1733
0x50,11,5,4.617,14.605,0.0171,0.2979,-0.1733
0x50,11,5,4.619,14.607,0.4238,-0.0112,0.5122
0x50,11,5,4.619,14.607,0.4238,-0.0112,0.5122
0x50,11,5,4.621,14.609,-0.3755,-0.1348,1.7197
0x50,11,5,4.629,14.617,-0.3755,-0.1348,1.7197
0x50,11,5,4.64,14.628,-0.1772,-0.124,2.0059
0x50,11,5,4.65,14.638,-0.1772,-0.124,2.0059
0x50,11,5,4.67,14.658,-0.105,0.2866,0.4116
0x50,11,5,4.671,14.659,-0.105,0.2866,0.4116
0x50,11,5,4.688,14.676,0.3262,0.1226,-0.0342
0x50,11,5,4.699,14.687,0.3262,0.1226,-0.0342
0x50,11,5,4.709,14.697,0.0195,-0.1431,1.2603
0x50,11,5,4.719,14.707,0.0195,-0.1431,1.2603
0x50,11,5,4.734,14.722,-0.4238,-0.1797,2.2861
0x50,11,5,4.739,14.727,-0.4238,-0.1797,2.2861
0x50,11,5,4.749,14.737,-0.0938,0.146,0.9731
0x50,11,5,4.756,14.744,-0.0938,0.146,0.9731
0x50,11,5,4.804,14.792,0.0928,0.2656,-0.2827
0x50,11,5,4.804,14.792,0.0928,0.2656,-0.2827
0x50,11,5,4.804,14.792,0.373,-0.0645,0.7534
0x50,11,5,4.804,14.792,0.373,-0.0645,0.7534
0x50,11,5,4.81,14.798,-0.4438,-0.1294,1.9351
0x50,11,5,4.813,14.801,-0.4438,-0.1294,1.9351
0x50,11,5,4.822,14.81,-0.0771,-0.0361,1.6514
0x50,11,5,4.828,14.816,-0.0771,-0.0361,1.6514
0x50,11,5,4.843,14.831,-0.0596,0.314,0.1191
0x50,11,5,4.849,14.837,-0.0596,0.314,0.1191
0x50,11,5,4.859,14.847,0.4092,0.0503,0.2432
0x50,11,5,4.869,14.857,0.4092,0.0503,0.2432
0x50,11,5,4.879,14.867,-0.1938,-0.1514,1.4751
0x50,11,5,4.904,14.892,-0.1938,-0.1514,1.4751
0x50,11,5,4.928,14.916,-0.2983,-0.1831,2.2397
0x50,11,5,4.939,14.927,-0.2983,-0.1831,2.2397
0x50,11,5,4.942,14.93,-0.1235,0.2119,0.7051
0x50,11,5,4.944,14.932,-0.1235,0.2119,0.7051
0x50,11,5,4.947,14.935,0.21,0.1875,-0.2256
0x50,11,5,4.997,14.985,0.21,0.1875,-0.2256
0x50,11,5,4.997,14.985,0.2256,-0.1226,0.9922
0x50,11,5,4.997,14.985,0.2256,-0.1226,0.9922
0x50,11,5,4.997,14.985,-0.4761,-0.1553,2.1436
0x50,11,5,4.999,14.987,-0.4761,-0.1553,2.1436
0x50,11,5,4.999,14.987,-0.061,0.0576,1.3062
0x50,11,5,5.02,15.008,-0.061,0.0576,1.3062
0x50,11,5,5.02,15.008,0.0068,0.3213,-0.1421
0x50,11,5,5.036,15.024,0.0068,0.3213,-0.1421
0x50,11,5,5.048,15.036,0.4312,0.0103,0.4922
0x50,11,5,5.054,15.042,0.4312,0.0103,0.4922
0x50,11,5,5.069,15.057,-0.3569,-0.1147,1.6953
0x50,11,5,5.073,15.061,-0.3569,-0.1147,1.6953
0x50,11,5,5.089,15.077,-0.1831,-0.1201,2.0215
0x50,11,5,5.093,15.081,-0.1831,-0.1201,2.0215
0x50,11,5,5.108,15.096,-0.1255,0.2764,0.4385
0x50,11,5,5.114,15.102,-0.1255,0.2764,0.4385
0x50,11,5,5.118,15.106,0.3154,0.1069,-0.0361
0x50,11,5,5.128,15.116,0.3154,0.1069,-0.0361
0x50,11,5,5.138,15.126,0.0273,-0.1655,1.228
0x50,11,5,5.148,15.136,0.0273,-0.1655,1.228
0x50,11,5,5.193,15.181,-0.4136,-0.2021,2.2915
0x50,11,5,5.193,15.181,-0.4136,-0.2021,2.2915
0x50,11,5,5.195,15.183,-0.0728,0.1245,0.9917
0x50,11,5,5.198,15.186,-0.0728,0.1245,0.9917
0x50,11,5,5.2,15.188,0.1094,0.2661,-0.2935
0x50,11,5,5.204,15.192,0.1094,0.2661,-0.2935
0x50,11,5,5.219,15.207,0.3872,-0.0576,0.7417
0x50,11,5,5.223,15.211,0.3872,-0.0576,0.7417
0x50,11,5,5.239,15.227,-0.4487,-0.1108,1.9399
0x50,11,5,5.243,15.231,-0.4487,-0.1108,1.9399
0x50,11,5,5.268,15.256,-0.0991,-0.022,1.6646
0x50,11,5,5.303,15.291,-0.0991,-0.022,1.6646
0x50,11,5,5.313,15.301,-0.0874,0.3291,0.1343
0x50,11,5,5.315,15.303,-0.0874,0.3291,0.1343
0x50,11,5,5.32,15.308,0.3809,0.0615,0.2354
0x50,11,5,5.323,15.311,0.3809,0.0615,0.2354
0x50,11,5,5.326,15.314,-0.1973,-0.1426,1.4717
0x50,11,5,5.34,15.328,-0.1973,-0.1426,1.4717
0x50,11,5,5.343,15.331,-0.3062,-0.1831,2.2407
0x50,11,5,5.359,15.347,-0.3062,-0.1831,2.2407
0x50,11,5,5.363,15.351,-0.0986,0.2065,0.7114
0x50,11,5,5.38,15.368,-0.0986,0.2065,0.7114
0x50,11,5,5.383,15.371,0.2271,0.1782,-0.2344
0x50,11,5,5.394,15.382,0.2271,0.1782,-0.2344
0x50,11,5,5.432,15.42,0.2524,-0.1392,0.9941
0x50,11,5,5.433,15.421,0.2524,-0.1392,0.9941
0x50,11,5,5.433,15.421,-0.4561,-0.1709,2.1553
0x50,11,5,5.433,15.421,-0.4561,-0.1709,2.1553
0x50,11,5,5.445,15.433,-0.0635,0.0469,1.2935
0x50,11,5,5.448,15.436,-0.0635,0.0469,1.2935
0x50,11,5,5.455,15.443,-0.001,0.3169,-0.1436
0x50,11,5,5.466,15.454,-0.001,0.3169,-0.1436
0x50,11,5,5.476,15.464,0.4092,0.0103,0.4976
0x50,11,5,5.486,15.474,0.4092,0.0103,0.4976
0x50,11,5,5.494,15.482,-0.3848,-0.103,1.6948
0x50,11,5,5.505,15.493,-0.3848,-0.103,1.6948
0x50,11,5,5.515,15.503,-0.1987,-0.1011,2.0181
0x50,11,5,5.525,15.513,-0.1987,-0.1011,2.0181
0x50,11,5,5.535,15.523,-0.1191,0.2925,0.4404
0x50,11,5,5.546,15.534,-0.1191,0.2925,0.4404
0x50,11,5,5.553,15.541,0.3232,0.1211,-0.0308
0x50,11,5,5.572,15.56,0.3232,0.1211,-0.0308
0x50,11,5,5.572,15.56,0.042,-0.1533,1.2383
0x50,11,5,5.617,15.605,0.042,-0.1533,1.2383
0x50,11,5,5.618,15.606,-0.3887,-0.2031,2.2847
0x50,11,5,5.665,15.653,-0.3887,-0.2031,2.2847
0x50,11,5,5.665,15.653,-0.0659,0.1177,0.9785
0x50,11,5,5.67,15.658,-0.0659,0.1177,0.9785
0x50,11,5,5.67,15.658,0.1196,0.2437,-0.291
0x50,11,5,5.677,15.665,0.1196,0.2437,-0.291
0x50,11,5,5.677,15.665,0.3721,-0.0811,0.7451
0x50,11,5,5.683,15.671,0.3721,-0.0811,0.7451
0x50,11,5,5.685,15.673,-0.4692,-0.1377,1.9316
0x50,11,5,5.693,15.681,-0.4692,-0.1377,1.9316
0x50,11,5,5.7,15.688,-0.106,-0.0332,1.6621
0x50,11,5,5.715,15.703,-0.106,-0.0332,1.6621
0x50,11,5,5.719,15.707,-0.0859,0.3315,0.1201
0x50,11,5,5.734,15.722,-0.0859,0.3315,0.1201
0x50,11,5,5.738,15.726,0.3887,0.0776,0.2407
0x50,11,5,5.753,15.741,0.3887,0.0776,0.2407
0x50,11,5,5.755,15.743,-0.1992,-0.1182,1.4917
0x50,11,5,5.763,15.751,-0.1992,-0.1182,1.4917
0x50,11,5,5.8,15.788,-0.2852,-0.1577,2.2466
0x50,11,5,5.8,15.788,-0.2852,-0.1577,2.2466
0x50,11,5,5.825,15.813,-0.1084,0.2246,0.6997
0x50,11,5,5.836,15.824,-0.1084,0.2246,0.6997
0x50,11,5,5.838,15.826,0.2339,0.1792,-0.2363
0x50,11,5,5.84,15.828,0.2339,0.1792,-0.2363
0x50,11,5,5.842,15.83,0.2417,-0.1465,1.0005
0x50,11,5,5.844,15.832,0.2417,-0.1465,1.0005
0x50,11,5,5.848,15.836,-0.4619,-0.1929,2.1582
0x50,11,5,5.864,15.852,-0.4619,-0.1929,2.1582
0x50,11,5,5.87,15.858,-0.0669,0.0283,1.2871
0x50,11,5,5.885,15.873,-0.0669,0.0283,1.2871
0x50,11,5,5.889,15.877,-0.0015,0.3032,-0.1577
0x50,11,5,5.904,15.892,-0.0015,0.3032,-0.1577
0x50,11,5,5.926,15.914,0.4087,0.0039,0.4946
0x50,11,5,5.926,15.914,0.4087,0.0039,0.4946
0x50,11,5,5.944,15.932,-0.3813,-0.1064,1.708
0x50,11,5,5.948,15.936,-0.3813,-0.1064,1.708
0x50,11,5,5.991,15.979,-0.1816,-0.0918,2.0293
0x50,11,5,5.991,15.979,-0.1816,-0.0918,2.0293
0x50,11,5,6.008,15.996,-0.1216,0.3091,0.4219
0x50,11,5,6.033,16.021,-0.1216,0.3091,0.4219
0x50,11,5,6.044,16.032,0.3286,0.1318,-0.0317
0x50,11,5,6.046,16.034,0.3286,0.1318,-0.0317
0x50,11,5,6.049,16.037,0.0327,-0.1475,1.2627
0x50,11,5,6.052,16.04,0.0327,-0.1475,1.2627
0x50,11,5,6.054,16.042,-0.3931,-0.1987,2.2959
0x50,11,5,6.056,16.044,-0.3931,-0.1987,2.2959
0x50,11,5,6.059,16.047,-0.0806,0.124,0.9604
0x50,11,5,6.069,16.057,-0.0806,0.124,0.9604
0x50,11,5,6.084,16.072,0.1113,0.2427,-0.3062
0x50,11,5,6.086,16.074,0.1113,0.2427,-0.3062
0x50,11,5,6.09,16.078,0.3672,-0.0918,0.7505
0x50,11,5,6.101,16.089,0.3672,-0.0918,0.7505
0x50,11,5,6.115,16.103,-0.4595,-0.1509,1.9492
0x50,11,5,6.117,16.105,-0.4595,-0.1509,1.9492
0x50,11,5,6.134,16.122,-0.0894,-0.0386,1.6602
0x50,11,5,6.138,16.126,-0.0894,-0.0386,1.6602
0x50,11,5,6.153,16.141,-0.0776,0.334,0.0962
0x50,11,5,6.159,16.147,-0.0776,0.334,0.0962
0x50,11,5,6.174,16.162,0.4019,0.0737,0.2378
0x50,11,5,6.178,16.166,0.4019,0.0737,0.2378
0x50,11,5,6.232,16.22,0.4019,0.0737,0.2378
0x50,11,5,6.232,16.22,-0.2056,-0.1201,1.5098
0x50,11,5,6.232,16.22,-0.2056,-0.1201,1.5098
0x50,11,5,6.232,16.22,-0.2876,-0.1553,2.2598
0x50,11,5,6.232,16.22,-0.2876,-0.1553,2.2598
0x50,11,5,6.249,16.237,-0.1216,0.2329,0.6743
0x50,11,5,6.249,16.237,-0.1216,0.2329,0.6743
0x50,11,5,6.259,16.247,0.2217,0.1855,-0.2373
0x50,11,5,6.269,16.257,0.2217,0.1855,-0.2373
0x50,11,5,6.29,16.278,0.2246,-0.1382,1.0171
0x50,11,5,6.291,16.279,0.2246,-0.1382,1.0171
0x50,11,5,6.311,16.299,-0.4644,-0.1851,2.1714
0x50,11,5,6.315,16.303,-0.4644,-0.1851,2.1714
0x50,11,5,6.328,16.316,-0.061,0.0391,1.27
0x50,11,5,6.338,16.326,-0.061,0.0391,1.27
0x50,11,5,6.348,16.336,0.0142,0.3032,-0.1763
0x50,11,5,6.373,16.361,0.0142,0.3032,-0.1763
0x50,11,5,6.424,16.412,0.4272,-0.0063,0.5054
0x50,11,5,6.424,16.412,0.4272,-0.0063,0.5054
0x50,11,5,6.424,16.412,-0.3643,-0.124,1.7256
0x50,11,5,6.424,16.412,-0.3643,-0.124,1.7256
0x50,11,5,6.424,16.412,-0.165,-0.1074,2.0137
0x50,11,5,6.424,16.412,-0.165,-0.1074,2.0137
0x50,11,5,6.424,16.412,-0.1279,0.2988,0.397
0x50,11,5,6.43,16.418,-0.1279,0.2988,0.397
0x50,11,5,6.455,16.443,0.3218,0.124,-0.0195
0x50,11,5,6.47,16.458,0.3218,0.124,-0.0195
0x50,11,5,6.473,16.461,0.0088,-0.1479,1.2681
0x50,11,5,6.475,16.463,0.0088,-0.1479,1.2681
0x50,11,5,6.478,16.466,-0.4028,-0.1885,2.3018
0x50,11,5,6.488,16.476,-0.4028,-0.1885,2.3018
0x50,11,5,6.498,16.486,-0.083,0.1401,0.9492
0x50,11,5,6.509,16.497,-0.083,0.1401,0.9492
0x50,11,5,6.519,16.507,0.1138,0.2568,-0.3022
0x50,11,5,6.526,16.514,0.1138,0.2568,-0.3022
0x50,11,5,6.539,16.527,0.373,-0.0791,0.7656
0x50,11,5,6.56,16.548,0.373,-0.0791,0.7656
0x50,11,5,6.566,16.554,-0.4556,-0.1396,1.9507
0x50,11,5,6.616,16.604,-0.4556,-0.1396,1.9507
0x50,11,5,6.617,16.605,-0.0894,-0.0352,1.6431
0x50,11,5,6.617,16.605,-0.0894,-0.0352,1.6431
0x50,11,5,6.617,16.605,-0.0806,0.3247,0.0981
0x50,11,5,6.618,16.606,-0.0806,0.3247,0.0981
0x50,11,5,6.624,16.612,0.397,0.0581,0.2476
0x50,11,5,6.639,16.627,0.397,0.0581,0.2476
0x50,11,5,6.648,16.636,-0.2134,-0.1367,1.499
0x50,11,5,6.655,16.643,-0.2134,-0.1367,1.499
0x50,11,5,6.666,16.654,-0.2837,-0.1675,2.2583
0x50,11,5,6.676,16.664,-0.2837,-0.1675,2.2583
0x50,11,5,6.684,16.672,-0.1167,0.2285,0.6758
0x50,11,5,6.699,16.687,-0.1167,0.2285,0.6758
0x50,11,5,6.703,16.691,0.2271,0.188,-0.2393
0x50,11,5,6.733,16.721,0.2271,0.188,-0.2393
0x50,11,5,6.734,16.722,0.2285,-0.1323,1.0195
0x50,11,5,6.758,16.746,0.2285,-0.1323,1.0195
0x50,11,5,6.799,16.787,-0.457,-0.1743,2.1855
0x50,11,5,6.799,16.787,-0.457,-0.1743,2.1855
0x50,11,5,6.799,16.787,-0.0576,0.0498,1.2627
0x50,11,5,6.799,16.787,-0.0576,0.0498,1.2627
0x50,11,5,6.799,16.787,0.0078,0.3091,-0.1802
0x50,11,5,6.799,16.787,0.0078,0.3091,-0.1802
0x50,11,5,6.8,16.788,0.4253,-0.0088,0.5107
0x50,11,5,6.807,16.795,0.4253,-0.0088,0.5107
0x50,11,5,6.817,16.805,-0.377,-0.1294,1.7261
0x50,11,5,6.828,16.816,-0.377,-0.1294,1.7261
0x50,11,5,6.849,16.837,-0.1724,-0.1123,2.0093
0x50,11,5,6.85,16.838,-0.1724,-0.1123,2.0093
0x50,11,5,6.869,16.857,-0.1313,0.2954,0.4009
0x50,11,5,6.869,16.857,-0.1313,0.2954,0.4009
0x50,11,5,6.887,16.875,0.3154,0.1265,-0.0239
0x50,11,5,6.887,16.875,0.3154,0.1265,-0.0239
0x50,11,5,6.91,16.898,0.0083,-0.144,1.2686
0x50,11,5,6.913,16.901,0.0083,-0.144,1.2686
0x50,11,5,6.928,16.916,-0.4019,-0.1826,2.3062
0x50,11,5,6.931,16.919,-0.4019,-0.1826,2.3062
0x50,11,5,6.95,16.938,-0.0742,0.1411,0.9556
0x50,11,5,6.953,16.941,-0.0742,0.1411,0.9556
0x50,11,5,6.968,16.956,0.1206,0.2603,-0.312
0x50,11,5,6.971,16.959,0.1206,0.2603,-0.312
0x50,11,5,6.988,16.976,0.3755,-0.0752,0.7539
0x50,11,5,6.992,16.98,0.3755,-0.0752,0.7539
0x50,11,5,7.042,17.03,-0.4541,-0.1421,1.9526
0x50,11,5,7.042,17.03,-0.4541,-0.1421,1.9526
0x50,11,5,7.042,17.03,-0.0942,-0.0396,1.6606
0x50,11,5,7.042,17.03,-0.0942,-0.0396,1.6606
0x50,11,5,7.042,17.03,-0.0771,0.3169,0.1001
0x50,11,5,7.049,17.037,-0.0771,0.3169,0.1001
0x50,11,5,7.053,17.041,0.4141,0.0547,0.2373
0x50,11,5,7.064,17.052,0.4141,0.0547,0.2373
0x50,11,5,7.075,17.063,-0.1992,-0.1475,1.4956
0x50,11,5,7.1,17.088,-0.1992,-0.1475,1.4956
0x50,11,5,7.125,17.113,-0.2925,-0.1699,2.2637
0x50,11,5,7.15,17.138,-0.2925,-0.1699,2.2637
0x50,11,5,7.17,17.158,-0.1357,0.23,0.6709
0x50,11,5,7.173,17.161,-0.1357,0.23,0.6709
0x50,11,5,7.175,17.163,0.1938,0.2031,-0.2314
0x50,11,5,7.178,17.166,0.1938,0.2031,-0.2314
0x50,11,5,7.18,17.168,0.2256,-0.125,1.0225
0x50,11,5,7.183,17.171,0.2256,-0.125,1.0225
0x50,11,5,7.185,17.173,-0.46,-0.1587,2.1455
0x50,11,5,7.232,17.22,-0.46,-0.1587,2.1455
0x50,11,5,7.232,17.22,-0.0454,0.0493,1.2866
0x50,11,5,7.232,17.22,-0.0454,0.0493,1.2866
0x50,11,5,7.232,17.22,0.0483,0.2847,-0.1313
0x50,11,5,7.233,17.221,0.0483,0.2847,-0.1313
0x50,11,5,7.243,17.231,0.4678,-0.0176,0.4839
0x50,11,5,7.254,17.242,0.4678,-0.0176,0.4839
0x50,11,5,7.254,17.242,-0.3535,-0.1396,1.6616
0x50,11,5,7.271,17.259,-0.3535,-0.1396,1.6616
0x50,11,5,7.281,17.269,-0.1958,-0.1172,2.0474
0x50,11,5,7.293,17.281,-0.1958,-0.1172,2.0474
0x50,11,5,7.3,17.288,-0.1865,0.2886,0.4443
0x50,11,5,7.315,17.303,-0.1865,0.2886,0.4443
0x50,11,5,7.319,17.307,0.271,0.145,-0.0449
0x50,11,5,7.335,17.323,0.271,0.145,-0.0449
0x50,11,5,7.339,17.327,-0.0093,-0.124,1.2202
0x50,11,5,7.354,17.342,-0.0093,-0.124,1.2202
0x50,11,5,7.356,17.344,-0.418,-0.1636,2.3013
0x50,11,5,7.363,17.351,-0.418,-0.1636,2.3013
0x50,11,5,7.373,17.361,-0.0586,0.1431,1.0244
0x50,11,5,7.383,17.371,-0.0586,0.1431,1.0244
0x50,11,5,7.419,17.407,0.1489,0.2681,-0.3188
0x50,11,5,7.419,17.407,0.1489,0.2681,-0.3188
0x50,11,5,7.419,17.407,0.4507,-0.0762,0.7183
0x50,11,5,7.427,17.415,0.4507,-0.0762,0.7183
0x50,11,5,7.43,17.418,-0.3862,-0.1636,1.9326
0x50,11,5,7.447,17.435,-0.3862,-0.1636,1.9326
0x50,11,5,7.45,17.438,-0.0752,-0.0757,1.7075
0x50,11,5,7.475,17.463,-0.0752,-0.0757,1.7075
0x50,11,5,7.511,17.499,-0.1274,0.2988,0.1147
0x50,11,5,7.511,17.499,-0.1274,0.2988,0.1147
0x50,11,5,7.514,17.502,0.3579,0.0552,0.2031
0x50,11,5,7.516,17.504,0.3579,0.0552,0.2031
0x50,11,5,7.519,17.507,-0.2485,-0.147,1.4526
0x50,11,5,7.523,17.511,-0.2485,-0.147,1.4526
0x50,11,5,7.542,17.53,-0.3477,-0.1626,2.3096
0x50,11,5,7.543,17.531,-0.3477,-0.1626,2.3096
0x50,11,5,7.565,17.553,-0.1313,0.2383,0.7266
0x50,11,5,7.567,17.555,-0.1313,0.2383,0.7266
0x50,11,5,7.582,17.57,0.2212,0.2402,-0.2988
0x50,11,5,7.59,17.578,0.2212,0.2402,-0.2988
0x50,11,5,7.601,17.589,0.3174,-0.0913,0.9917
0x50,11,5,7.609,17.597,0.3174,-0.0913,0.9917
0x50,11,5,7.661,17.649,-0.3984,-0.1514,2.1606
0x50,11,5,7.662,17.65,-0.3984,-0.1514,2.1606
0x50,11,5,7.662,17.65,-0.0293,0.0308,1.3188
0x50,11,5,7.662,17.65,-0.0293,0.0308,1.3188
0x50,11,5,7.664,17.652,-0.0186,0.2949,-0.1592
0x50,11,5,7.664,17.652,-0.0186,0.2949,-0.1592
0x50,11,5,7.67,17.658,0.4146,-0.0283,0.4702
0x50,11,5,7.685,17.673,0.4146,-0.0283,0.4702
0x50,11,5,7.692,17.68,-0.3945,-0.1709,1.6582
0x50,11,5,7.7,17.688,-0.3945,-0.1709,1.6582
0x50,11,5,7.717,17.705,-0.2222,-0.1587,2.0967
0x50,11,5,7.742,17.73,-0.2222,-0.1587,2.0967
0x50,11,5,7.751,17.739,-0.1548,0.2725,0.4644
0x50,11,5,7.753,17.741,-0.1548,0.2725,0.4644
0x50,11,5,7.756,17.744,0.3145,0.1533,-0.1045
0x50,11,5,7.758,17.746,0.3145,0.1533,-0.1045
0x50,11,5,7.774,17.762,0.0933,-0.123,1.2197
0x50,11,5,7.778,17.766,0.0933,-0.123,1.2197
0x50,11,5,7.794,17.782,-0.374,-0.1499,2.3047
0x50,11,5,7.81,17.798,-0.374,-0.1499,2.3047
0x50,11,5,7.847,17.835,-0.0518,0.1436,1.0127
0x50,11,5,7.863,17.851,-0.0518,0.1436,1.0127
0x50,11,5,7.878,17.866,0.0869,0.2856,-0.2935
0x50,11,5,7.881,17.869,0.0869,0.2856,-0.2935
0x50,11,5,7.881,17.869,0.3896,-0.0591,0.6973
0x50,11,5,7.885,17.873,0.3896,-0.0591,0.6973
0x50,11,5,7.886,17.874,-0.4731,-0.146,1.8643
0x50,11,5,7.891,17.879,-0.4731,-0.146,1.8643
0x50,11,5,7.898,17.886,-0.1387,-0.0762,1.7661
0x50,11,5,7.909,17.897,-0.1387,-0.0762,1.7661
0x50,11,5,7.918,17.906,-0.1162,0.2993,0.2153
0x50,11,5,7.928,17.916,-0.1162,0.2993,0.2153
0x50,11,5,7.936,17.924,0.374,0.0723,0.1362
0x50,11,5,7.955,17.943,0.374,0.0723,0.1362
0x50,11,5,7.958,17.946,-0.123,-0.1489,1.4155
0x50,11,5,7.973,17.961,-0.123,-0.1489,1.4155
0x50,11,5,7.975,17.963,-0.2988,-0.1768,2.3149
0x50,11,5,8.033,18.021,-0.2988,-0.1768,2.3149
0x50,11,5,8.034,18.022,-0.082,0.1973,0.77
0x50,11,5,8.034,18.022,-0.082,0.1973,0.77
0x50,11,5,8.034,18.022,0.1958,0.2236,-0.2988
0x50,11,5,8.034,18.022,0.1958,0.2236,-0.2988
0x50,11,5,8.034,18.022,0.2954,-0.1108,0.9302
0x50,11,5,8.037,18.025,0.2954,-0.1108,0.9302
0x50,11,5,8.053,18.041,-0.478,-0.1523,2.0967
0x50,11,5,8.056,18.044,-0.478,-0.1523,2.0967
0x50,11,5,8.072,18.06,-0.478,-0.1523,2.0967
0x50,11,5,8.082,18.07,-0.0903,0.0234,1.3921
0x50,11,5,8.087,18.075,-0.0903,0.0234,1.3921
0x50,11,5,8.097,18.085,-0.0449,0.3257,-0.0625
0x50,11,5,8.109,18.097,-0.0449,0.3257,-0.0625
0x50,11,5,8.117,18.105,0.4048,0.0273,0.4102
0x50,11,5,8.128,18.116,0.4048,0.0273,0.4102
0x50,11,5,8.138,18.126,-0.313,-0.1274,1.6421
0x50,11,5,8.149,18.137,-0.313,-0.1274,1.6421
0x50,11,5,8.158,18.146,-0.2017,-0.1401,2.1357
0x50,11,5,8.176,18.164,-0.2017,-0.1401,2.1357
0x50,11,5,8.223,18.211,-0.1123,0.2632,0.5039
0x50,11,5,8.231,18.219,-0.1123,0.2632,0.5039
0x50,11,5,8.248,18.236,0.3022,0.1401,-0.1245
0x50,11,5,8.251,18.239,0.3022,0.1401,-0.1245
0x50,11,5,8.253,18.241,0.1069,-0.166,1.1714
0x50,11,5,8.255,18.243,0.1069,-0.166,1.1714
0x50,11,5,8.258,18.246,-0.4316,-0.2021,2.2676
0x50,11,5,8.26,18.248,-0.4316,-0.2021,2.2676
0x50,11,5,8.264,18.252,-0.0811,0.0923,1.0532
0x50,11,5,8.279,18.267,-0.0811,0.0923,1.0532
0x50,11,5,8.283,18.271,0.0664,0.2847,-0.2603
0x50,11,5,8.298,18.286,0.0664,0.2847,-0.2603
0x50,11,5,8.3,18.288,0.3979,-0.0376,0.6626
0x50,11,5,8.308,18.296,0.3979,-0.0376,0.6626
0x50,11,5,8.318,18.306,-0.4292,-0.1152,1.8535
0x50,11,5,8.328,18.316,-0.4292,-0.1152,1.8535
0x50,11,5,8.339,18.327,-0.1147,-0.0498,1.8066
0x50,11,5,8.354,18.342,-0.1147,-0.0498,1.8066
0x50,11,5,8.356,18.344,-0.104,0.3276,0.2344
0x50,11,5,8.382,18.37,-0.104,0.3276,0.2344
0x50,11,5,8.392,18.38,0.3784,0.0938,0.1426
0x50,11,5,8.394,18.382,0.3784,0.0938,0.1426
0x50,11,5,8.396,18.384,-0.1167,-0.147,1.4082
0x50,11,5,8.407,18.395,-0.1167,-0.147,1.4082
0x50,11,5,8.459,18.447,-0.3462,-0.1895,2.2852
0x50,11,5,8.459,18.447,-0.3462,-0.1895,2.2852
0x50,11,5,8.459,18.447,-0.1138,0.1782,0.7813
0x50,11,5,8.459,18.447,-0.1138,0.1782,0.7813
0x50,11,5,8.468,18.456,0.1743,0.2119,-0.2769
0x50,11,5,8.468,18.456,0.1743,0.2119,-0.2769
0x50,11,5,8.489,18.477,0.3032,-0.1216,0.9038
0x50,11,5,8.489,18.477,0.3032,-0.1216,0.9038
0x50,11,5,8.508,18.496,-0.459,-0.1597,2.0654
0x50,11,5,8.508,18.496,-0.459,-0.1597,2.0654
0x50,11,5,8.527,18.515,-0.0596,0.0117,1.4282
0x50,11,5,8.535,18.523,-0.0596,0.0117,1.4282
0x50,11,5,8.545,18.533,-0.0229,0.3281,-0.0415
0x50,11,5,8.553,18.541,-0.0229,0.3281,-0.0415
0x50,11,5,8.579,18.567,0.4233,0.0347,0.3989
0x50,11,5,8.604,18.592,0.4233,0.0347,0.3989
0x50,11,5,8.651,18.639,-0.3086,-0.1196,1.6221
0x50,11,5,8.652,18.64,-0.3086,-0.1196,1.6221
0x50,11,5,8.652,18.64,-0.2349,-0.1333,2.1333
0x50,11,5,8.652,18.64,-0.2349,-0.1333,2.1333
0x50,11,5,8.652,18.64,-0.1309,0.2627,0.5371
0x50,11,5,8.652,18.64,-0.1309,0.2627,0.5371
0x50,11,5,8.652,18.64,0.2651,0.1499,-0.127
0x50,11,5,8.652,18.64,0.2651,0.1499,-0.127
0x50,11,5,8.655,18.643,0.1226,-0.1519,1.1494
0x50,11,5,8.665,18.653,0.1226,-0.1519,1.1494
0x50,11,5,8.675,18.663,-0.4346,-0.186,2.2275
0x50,11,5,8.693,18.681,-0.4346,-0.186,2.2275
0x50,11,5,8.696,18.684,-0.0547,0.0835,1.0898
0x50,11,5,8.705,18.693,-0.0547,0.0835,1.0898
0x50,11,5,8.715,18.703,0.0713,0.2842,-0.2402
0x50,11,5,8.724,18.712,0.0713,0.2842,-0.2402
0x50,11,5,8.739,18.727,0.4233,-0.0425,0.6367
0x50,11,5,8.741,18.729,0.4233,-0.0425,0.6367
0x50,11,5,8.756,18.744,-0.4224,-0.1196,1.8281
0x50,11,5,8.763,18.751,-0.4224,-0.1196,1.8281
0x50,11,5,8.778,18.766,-0.1343,-0.0752,1.8374
0x50,11,5,8.796,18.784,-0.1343,-0.0752,1.8374
0x50,11,5,8.8,18.788,-0.1167,0.314,0.2856
0x50,11,5,8.841,18.829,-0.1167,0.314,0.2856
0x50,11,5,8.841,18.829,0.3462,0.0923,0.0928
0x50,11,5,8.841,18.829,0.3462,0.0923,0.0928
0x50,11,5,8.841,18.829,-0.1016,-0.1436,1.3828
0x50,11,5,8.853,18.841,-0.1016,-0.1436,1.3828
0x50,11,5,8.868,18.856,-0.3496,-0.1807,2.292
0x50,11,5,8.871,18.859,-0.3496,-0.1807,2.292
0x50,11,5,8.887,18.875,-0.0938,0.1831,0.811
0x50,11,5,8.891,18.879,-0.0938,0.1831,0.811
0x50,11,5,8.891,18.879,0.1675,0.2305,-0.2837
0x50,11,5,8.908,18.896,0.1675,0.2305,-0.2837
0x50,11,5,8.937,18.925,0.332,-0.105,0.8877
0x50,11,5,8.962,18.95,0.332,-0.105,0.8877
0x50,11,5,8.982,18.97,-0.4619,-0.1489,2.0273
0x50,11,5,8.984,18.972,-0.4619,-0.1489,2.0273
0x50,11,5,8.987,18.975,-0.0742,-0.0049,1.4653
0x50,11,5,8.989,18.977,-0.0742,-0.0049,1.4653
0x50,11,5,8.992,18.98,-0.0483,0.3184,0.0127
0x50,11,5,8.994,18.982,-0.0483,0.3184,0.0127
0x50,11,5,8.996,18.984,0.4155,0.0288,0.3564
0x50,11,5,9.022,19.01,0.4155,0.0288,0.3564
0x50,11,5,9.032,19.02,-0.2891,-0.1265,1.5898
0x50,11,5,9.034,19.022,-0.2891,-0.1265,1.5898
0x50,11,5,9.037,19.025,-0.2461,-0.146,2.1733
0x50,11,5,9.04,19.028,-0.2461,-0.146,2.1733
0x50,11,5,9.078,19.066,-0.127,0.2593,0.5771
0x50,11,5,9.079,19.067,-0.127,0.2593,0.5771
0x50,11,5,9.079,19.067,0.2642,0.1655,-0.166
0x50,11,5,9.079,19.067,0.2642,0.1655,-0.166
0x50,11,5,9.102,19.09,0.1553,-0.1455,1.1235
0x50,11,5,9.102,19.09,0.1553,-0.1455,1.1235
0x50,11,5,9.113,19.101,-0.4346,-0.1797,2.2144
0x50,11,5,9.123,19.111,-0.4346,-0.1797,2.2144
0x50,11,5,9.145,19.133,-0.0693,0.084,1.1226
0x50,11,5,9.148,19.136,-0.0693,0.084,1.1226
0x50,11,5,9.164,19.152,0.0571,0.2969,-0.2256
0x50,11,5,9.168,19.156,0.0571,0.2969,-0.2256
0x50,11,5,9.184,19.172,0.4053,-0.0278,0.6079
0x50,11,5,9.189,19.177,0.4053,-0.0278,0.6079
0x50,11,5,9.203,19.191,-0.4126,-0.1318,1.8208
0x50,11,5,9.209,19.197,-0.4126,-0.1318,1.8208
0x50,11,5,9.224,19.212,-0.1479,-0.0933,1.8818
0x50,11,5,9.227,19.215,-0.1479,-0.0933,1.8818
0x50,11,5,9.272,19.26,-0.1206,0.3032,0.2822
0x50,11,5,9.272,19.26,-0.1206,0.3032,0.2822
0x50,11,5,9.272,19.26,0.355,0.0977,0.0674
0x50,11,5,9.272,19.26,0.355,0.0977,0.0674
0x50,11,5,9.279,19.267,-0.0786,-0.1523,1.3618
0x50,11,5,9.279,19.267,-0.0786,-0.1523,1.3618
0x50,11,5,9.305,19.293,-0.3589,-0.1836,2.3257
0x50,11,5,9.338,19.326,-0.3589,-0.1836,2.3257
0x50,11,5,9.345,19.333,-0.0933,0.1733,0.833
0x50,11,5,9.35,19.338,-0.0933,0.1733,0.833
0x50,11,5,9.353,19.341,0.166,0.2451,-0.3003
0x50,11,5,9.355,19.343,0.166,0.2451,-0.3003
0x50,11,5,9.358,19.346,0.355,-0.0938,0.8496
0x50,11,5,9.36,19.348,0.355,-0.0938,0.8496
0x50,11,5,9.371,19.359,-0.4487,-0.146,2.0244
0x50,11,5,9.381,19.369,-0.4487,-0.146,2.0244
0x50,11,5,9.391,19.379,-0.082,-0.0122,1.5044
0x50,11,5,9.414,19.402,-0.082,-0.0122,1.5044
0x50,11,5,9.416,19.404,-0.0625,0.3198,0.0313
0x50,11,5,9.466,19.454,-0.0625,0.3198,0.0313
0x50,11,5,9.466,19.454,0.3965,0.0425,0.3276
0x50,11,5,9.466,19.454,0.3965,0.0425,0.3276
0x50,11,5,9.466,19.454,-0.2896,-0.1313,1.5576
0x50,11,5,9.485,19.473,-0.2896,-0.1313,1.5576
0x50,11,5,9.485,19.473,-0.2754,-0.1519,2.1987
0x50,11,5,9.49,19.478,-0.2754,-0.1519,2.1987
0x50,11,5,9.491,19.479,-0.1255,0.2456,0.6118
0x50,11,5,9.512,19.5,-0.1255,0.2456,0.6118
0x50,11,5,9.515,19.503,0.2598,0.1743,-0.1831
0x50,11,5,9.531,19.519,0.2598,0.1743,-0.1831
0x50,11,5,9.537,19.525,0.2017,-0.1372,1.0815
0x50,11,5,9.552,19.54,0.2017,-0.1372,1.0815
0x50,11,5,9.555,19.543,-0.4189,-0.1758,2.1982
0x50,11,5,9.57,19.558,-0.4189,-0.1758,2.1982
0x50,11,5,9.572,19.56,-0.0493,0.0659,1.1699
0x50,11,5,9.58,19.568,-0.0493,0.0659,1.1699
0x50,11,5,9.592,19.58,0.0391,0.2949,-0.1875
0x50,11,5,9.599,19.587,0.0391,0.2949,-0.1875
0x50,11,5,9.61,19.598,0.4043,-0.0234,0.5693
0x50,11,5,9.658,19.646,0.4043,-0.0234,0.5693
0x50,11,5,9.659,19.647,-0.417,-0.1294,1.7622
0x50,11,5,9.694,19.682,-0.417,-0.1294,1.7622
0x50,11,5,9.72,19.708,-0.1763,-0.1006,1.9312
0x50,11,5,9.727,19.715,-0.1763,-0.1006,1.9312
0x50,11,5,9.729,19.717,-0.1289,0.2993,0.3569
0x50,11,5,9.732,19.72,-0.1289,0.2993,0.3569
0x50,11,5,9.737,19.725,0.3447,0.1104,0.0361
0x50,11,5,9.737,19.725,0.3447,0.1104,0.0361
0x50,11,5,9.742,19.73,-0.0239,-0.1416,1.313
0x50,11,5,9.742,19.73,-0.0239,-0.1416,1.313
0x50,11,5,9.746,19.734,-0.3682,-0.1777,2.2837
0x50,11,5,9.746,19.734,-0.3682,-0.1777,2.2837
0x50,11,5,9.759,19.747,-0.0869,0.1592,0.8945
0x50,11,5,9.759,19.747,-0.0869,0.1592,0.8945
0x50,11,5,9.78,19.768,0.1494,0.2422,-0.2681
0x50,11,5,9.784,19.772,0.1494,0.2422,-0.2681
0x50,11,5,9.797,19.785,0.3594,-0.0898,0.8042
0x50,11,5,9.808,19.796,0.3594,-0.0898,0.8042
0x50,11,5,9.818,19.806,-0.4556,-0.1475,1.9565
0x50,11,5,9.825,19.813,-0.4556,-0.1475,1.9565
0x50,11,5,9.841,19.829,-0.0986,-0.0264,1.5688
0x50,11,5,9.843,19.831,-0.0986,-0.0264,1.5688
0x50,11,5,9.859,19.847,-0.0742,0.3179,0.0923
0x50,11,5,9.862,19.85,-0.0742,0.3179,0.0923
0x50,11,5,9.896,19.884,0.3901,0.0542,0.2896
0x50,11,5,9.896,19.884,0.3901,0.0542,0.2896
0x50,11,5,9.897,19.885,-0.25,-0.1235,1.5137
0x50,11,5,9.899,19.887,-0.25,-0.1235,1.5137
0x50,11,5,9.907,19.895,-0.2832,-0.1499,2.2153
0x50,11,5,9.918,19.906,-0.2832,-0.1499,2.2153
0x50,11,5,9.929,19.917,-0.2832,-0.1499,2.2153
0x50,11,5,9.936,19.924,-0.1182,0.2407,0.6636
0x50,11,5,9.951,19.939,-0.1182,0.2407,0.6636
0x50,11,5,9.955,19.943,0.2544,0.1797,-0.1924
0x50,11,5,9.971,19.959,0.2544,0.1797,-0.1924
0x50,11,5,9.974,19.962,0.2188,-0.1348,1.0386
0x50,11,5,9.989,19.977,0.2188,-0.1348,1.0386
0x50,11,5,9.998,19.986,-0.4399,-0.1763,2.1646
0x50,11,5,10.008,19.996,-0.4399,-0.1763,2.1646
0x50,11,5,10.015,20.003,-0.0654,0.0508,1.2236
0x50,11,5,10.041,20.029,-0.0654,0.0508,1.2236
0x50,11,5,10.085,20.073,0.0259,0.2954,-0.1538
0x50,11,5,10.085,20.073,0.0259,0.2954,-0.1538
0x50,11,5,10.087,20.075,0.4131,-0.0171,0.5322
0x50,11,5,10.089,20.077,0.4131,-0.0171,0.5322
0x50,11,5,10.092,20.08,-0.3975,-0.1221,1.7178
0x50,11,5,10.092,20.08,-0.3975,-0.1221,1.7178
0x50,11,5,10.107,20.095,-0.1831,-0.104,1.9702
0x50,11,5,10.107,20.095,-0.1831,-0.104,1.9702
0x50,11,5,10.128,20.116,-0.1226,0.2983,0.4067
0x50,11,5,10.131,20.119,-0.1226,0.2983,0.4067
0x50,11,5,10.147,20.135,0.3315,0.1216,0.0059
0x50,11,5,10.155,20.143,0.3315,0.1216,0.0059
0x50,11,5,10.165,20.153,-0.0024,-0.1362,1.2725
0x50,11,5,10.173,20.161,-0.0024,-0.1362,1.2725
0x50,11,5,10.188,20.176,-0.3813,-0.1821,2.2915
0x50,11,5,10.192,20.18,-0.3813,-0.1821,2.2915
0x50,11,5,10.207,20.195,-0.0815,0.1465,0.9336
0x50,11,5,10.209,20.197,-0.0815,0.1465,0.9336
0x50,11,5,10.217,20.205,0.1416,0.2466,-0.2813
0x50,11,5,10.228,20.216,0.1416,0.2466,-0.2813
0x50,11,5,10.235,20.223,0.3696,-0.083,0.7744
0x50,11,5,10.27,20.258,0.3696,-0.083,0.7744
0x50,11,5,10.27,20.258,-0.4639,-0.144,1.9424
0x50,11,5,10.27,20.258,-0.4639,-0.144,1.9424
0x50,11,5,10.277,20.265,-0.104,-0.0366,1.6172
0x50,11,5,10.305,20.293,-0.104,-0.0366,1.6172
0x50,11,5,10.315,20.303,-0.0713,0.3213,0.1157
0x50,11,5,10.317,20.305,-0.0713,0.3213,0.1157
0x50,11,5,10.32,20.308,0.4023,0.063,0.2578
0x50,11,5,10.338,20.326,0.4023,0.063,0.2578
0x50,11,5,10.338,20.326,-0.2095,-0.124,1.5
0x50,11,5,10.341,20.329,-0.2095,-0.124,1.5
0x50,11,5,10.356,20.344,-0.2891,-0.1543,2.2378
0x50,11,5,10.362,20.35,-0.2891,-0.1543,2.2378
0x50,11,5,10.378,20.366,-0.1172,0.2368,0.6938
0x50,11,5,10.421,20.409,-0.1172,0.2368,0.6938
0x50,11,5,10.445,20.433,0.2354,0.2046,-0.1899
0x50,11,5,10.451,20.439,0.2354,0.2046,-0.1899
0x50,11,5,10.453,20.441,0.2222,-0.103,1.0078
0x50,11,5,10.456,20.444,0.2222,-0.103,1.0078
0x50,11,5,10.458,20.446,-0.4487,-0.1738,2.1279
0x50,11,5,10.463,20.451,-0.4487,-0.1738,2.1279
0x50,11,5,10.465,20.453,0,-0.0259,1.2666
0x50,11,5,10.471,20.459,0,-0.0259,1.2666
0x50,11,5,10.508,20.496,0.0776,0.2114,-0.1992
0x50,11,5,10.508,20.496,0.0776,0.2114,-0.1992
0x50,11,5,10.508,20.496,0.3623,-0.0474,0.4214
0x50,11,5,10.513,20.501,0.3623,-0.0474,0.4214
0x50,11,5,10.52,20.508,-0.3857,-0.1421,1.8389
0x50,11,5,10.535,20.523,-0.3857,-0.1421,1.8389
0x50,11,5,10.538,20.526,-0.249,-0.0742,1.9712
0x50,11,5,10.541,20.529,-0.249,-0.0742,1.9712
0x50,11,5,10.558,20.546,-0.1758,0.2871,0.645
0x50,11,5,10.564,20.552,-0.1758,0.2871,0.645
0x50,11,5,10.575,20.563,0.2856,0.2983,0.2305
0x50,11,5,10.583,20.571,0.2856,0.2983,0.2305
0x50,11,5,10.593,20.581,0.0488,0.1064,0.9385
0x50,11,5,10.603,20.591,0.0488,0.1064,0.9385
0x50,11,5,10.619,20.607,-0.4756,-0.0435,1.958
0x50,11,5,10.621,20.609,-0.4756,-0.0435,1.958
0x50,11,5,10.636,20.624,-0.0859,-0.0449,1.2412
0x50,11,5,10.64,20.628,-0.0859,-0.0449,1.2412
0x50,11,5,10.656,20.644,0.0962,0.0742,0.062
0x50,11,5,10.66,20.648,0.0962,0.0742,0.062
0x50,11,5,10.697,20.685,0.5166,-0.228,0.5068
0x50,11,5,10.697,20.685,0.5166,-0.228,0.5068
0x50,11,5,10.699,20.687,-0.3057,-0.2563,1.3765
0x50,11,5,10.699,20.687,-0.3057,-0.2563,1.3765
0x50,11,5,10.714,20.702,-0.2729,-0.2471,1.9492
0x50,11,5,10.723,20.711,-0.2729,-0.2471,1.9492
0x50,11,5,10.742,20.73,-0.0659,0.1831,0.8081
0x50,11,5,10.752,20.74,-0.0659,0.1831,0.8081
0x50,11,5,10.798,20.786,0.3657,0.0898,-0.0503
0x50,11,5,10.815,20.803,0.3657,0.0898,-0.0503
0x50,11,5,10.82,20.808,0.0098,-0.0156,0.9302
0x50,11,5,10.825,20.813,0.0098,-0.0156,0.9302
0x50,11,5,10.828,20.816,-0.6357,0.0142,1.9497
0x50,11,5,10.83,20.818,-0.6357,0.0142,1.9497
0x50,11,5,10.833,20.821,-0.3608,0.189,1.5864
0x50,11,5,10.835,20.823,-0.3608,0.189,1.5864
0x50,11,5,10.839,20.827,0.1641,0.3862,0.168
0x50,11,5,10.845,20.833,0.1641,0.3862,0.168
0x50,11,5,10.886,20.874,0.4473,0.0845,0.0957
0x50,11,5,10.886,20.874,0.4473,0.0845,0.0957
0x50,11,5,10.886,20.874,-0.2163,-0.0874,1.4209
0x50,11,5,10.886,20.874,-0.2163,-0.0874,1.4209
0x50,11,5,10.892,20.88,-0.3081,-0.2217,2.2402
0x50,11,5,10.902,20.89,-0.3081,-0.2217,2.2402
0x50,11,5,10.917,20.905,-0.0737,0.0728,0.8359
0x50,11,5,10.942,20.93,-0.0737,0.0728,0.8359
0x50,11,5,10.954,20.942,0.5063,0.022,-0.1929
0x50,11,5,10.957,20.945,0.5063,0.022,-0.1929
0x50,11,5,10.959,20.947,0.1528,-0.2456,0.6475
0x50,11,5,10.962,20.95,0.1528,-0.2456,0.6475
0x50,11,5,10.973,20.961,-0.5161,-0.3208,2.1489
0x50,11,5,10.979,20.967,-0.5161,-0.3208,2.1489
0x50,11,5,10.994,20.982,-0.3062,-0.1206,1.6675
0x50,11,5,11.013,21.001,-0.3062,-0.1206,1.6675
0x50,11,5,11.016,21.004,0.0112,0.3428,0.0034
0x50,11,5,11.073,21.061,0.0112,0.3428,0.0034
0x50,11,5,11.073,21.061,0.481,0.1577,0.189
0x50,11,5,11.073,21.061,0.481,0.1577,0.189
0x50,11,5,11.073,21.061,-0.2363,0.0737,1.5693
0x50,11,5,11.073,21.061,-0.2363,0.0737,1.5693
0x50,11,5,11.081,21.069,-0.332,0.0234,2.1655
0x50,11,5,11.091,21.079,-0.332,0.0234,2.1655
0x50,11,5,11.091,21.079,-0.2007,0.293,0.8081
0x50,11,5,11.108,21.096,-0.2007,0.293,0.8081
0x50,11,5,11.119,21.107,0.3677,0.1919,-0.0107
0x50,11,5,11.145,21.133,0.3677,0.1919,-0.0107
0x50,11,5,11.17,21.158,0.2529,-0.1563,0.7622
0x50,11,5,11.185,21.173,0.2529,-0.1563,0.7622
0x50,11,5,11.188,21.176,-0.5366,-0.2666,1.6782
0x50,11,5,11.19,21.178,-0.5366,-0.2666,1.6782
0x50,11,5,11.193,21.181,-0.3867,-0.145,1.7422
0x50,11,5,11.195,21.183,-0.3867,-0.145,1.7422
0x50,11,5,11.198,21.186,-0.0391,0.1665,0.4502
0x50,11,5,11.2,21.188,-0.0391,0.1665,0.4502
0x50,11,5,11.21,21.198,0.5381,-0.0059,0.0562
0x50,11,5,11.221,21.209,0.5381,-0.0059,0.0562
0x50,11,5,11.229,21.217,0.0649,-0.1597,1.0532
0x50,11,5,11.239,21.227,0.0649,-0.1597,1.0532
0x50,11,5,11.248,21.236,-0.3843,-0.1055,2.0801
0x50,11,5,11.263,21.251,-0.3843,-0.1055,2.0801
0x50,11,5,11.266,21.254,-0.2319,0.147,1.3765
0x50,11,5,11.313,21.301,-0.2319,0.147,1.3765
0x50,11,5,11.314,21.302,0.2104,0.3379,0.0928
0x50,11,5,11.314,21.302,0.2104,0.3379,0.0928
0x50,11,5,11.321,21.309,0.3696,0.0479,0.3428
0x50,11,5,11.321,21.309,0.3696,0.0479,0.3428
0x50,11,5,11.341,21.329,-0.3965,-0.0679,1.4956
0x50,11,5,11.341,21.329,-0.3965,-0.0679,1.4956
0x50,11,5,11.349,21.337,-0.5059,-0.0688,1.9688
0x50,11,5,11.359,21.347,-0.5059,-0.0688,1.9688
0x50,11,5,11.377,21.365,-0.2256,0.106,0.751
0x50,11,5,11.388,21.376,-0.2256,0.106,0.751
0x50,11,5,11.398,21.386,0.4082,0.0674,0.0317
0x50,11,5,11.405,21.393,0.4082,0.0674,0.0317
0x50,11,5,11.42,21.408,0.2271,-0.1719,0.8018
0x50,11,5,11.424,21.412,0.2271,-0.1719,0.8018
0x50,11,5,11.439,21.427,-0.2847,-0.228,1.9819
0x50,11,5,11.443,21.431,-0.2847,-0.228,1.9819
0x50,11,5,11.459,21.447,-0.1035,-0.0479,1.5161
0x50,11,5,11.463,21.451,-0.1035,-0.0479,1.5161
0x50,11,5,11.504,21.492,0.1279,0.2715,0.1416
0x50,11,5,11.504,21.492,0.1279,0.2715,0.1416
0x50,11,5,11.504,21.492,0.46,0.0381,0.2793
0x50,11,5,11.518,21.506,0.46,0.0381,0.2793
0x50,11,5,11.543,21.531,-0.3159,-0.105,1.4302
0x50,11,5,11.554,21.542,-0.3159,-0.105,1.4302
0x50,11,5,11.557,21.545,-0.54,-0.124,2.021
0x50,11,5,11.581,21.569,-0.54,-0.124,2.021
0x50,11,5,11.594,21.582,-0.335,0.1694,0.8647
0x50,11,5,11.596,21.584,-0.335,0.1694,0.8647
0x50,11,5,11.599,21.587,0.2222,0.2236,0.0449
0x50,11,5,11.601,21.589,0.2222,0.2236,0.0449
0x50,11,5,11.604,21.592,0.2759,-0.0176,0.7578
0x50,11,5,11.606,21.594,0.2759,-0.0176,0.7578
0x50,11,5,11.609,21.597,-0.3267,-0.0913,1.7603
0x50,11,5,11.615,21.603,-0.3267,-0.0913,1.7603
0x50,11,5,11.63,21.618,-0.0811,-0.0176,1.6797
0x50,11,5,11.652,21.64,-0.0811,-0.0176,1.6797
0x50,11,5,11.654,21.642,0.0322,0.2637,0.3564
0x50,11,5,11.692,21.68,0.0322,0.2637,0.3564
0x50,11,5,11.692,21.68,0.5029,0.0396,0.2446
0x50,11,5,11.692,21.68,0.5029,0.0396,0.2446
0x50,11,5,11.693,21.681,-0.1211,-0.1948,1.2373
0x50,11,5,11.708,21.696,-0.1211,-0.1948,1.2373
0x50,11,5,11.708,21.696,-0.4458,-0.2217,2.0322
0x50,11,5,11.727,21.715,-0.4458,-0.2217,2.0322
0x50,11,5,11.733,21.721,-0.2729,0.0488,1.0132
0x50,11,5,11.748,21.736,-0.2729,0.0488,1.0132
0x50,11,5,11.751,21.739,0.1211,0.2466,0.0313
0x50,11,5,11.768,21.756,0.1211,0.2466,0.0313
0x50,11,5,11.773,21.761,0.1211,0.2466,0.0313
0x50,11,5,11.788,21.776,0.3086,0.0449,0.6484
0x50,11,5,11.791,21.779,0.3086,0.0449,0.6484
0x50,11,5,11.806,21.794,-0.4136,0.0073,1.6001
0x50,11,5,11.809,21.797,-0.4136,0.0073,1.6001
0x50,11,5,11.815,21.803,-0.165,0.0098,1.835
0x50,11,5,11.825,21.813,-0.165,0.0098,1.835
0x50,11,5,11.835,21.823,-0.0269,0.2847,0.5381
0x50,11,5,11.888,21.876,-0.0269,0.2847,0.5381
0x50,11,5,11.888,21.876,0.4907,0.0776,0.1201
0x50,11,5,11.888,21.876,0.4907,0.0776,0.1201
0x50,11,5,11.907,21.895,-0.0088,-0.1587,1.1396
0x50,11,5,11.921,21.909,-0.0088,-0.1587,1.1396
0x50,11,5,11.926,21.914,-0.4634,-0.2471,2.0781
0x50,11,5,11.929,21.917,-0.4634,-0.2471,2.0781
0x50,11,5,11.931,21.919,-0.2129,0.0088,1.2012
0x50,11,5,11.939,21.927,-0.2129,0.0088,1.2012
0x50,11,5,11.939,21.927,0.1304,0.1714,-0.106
0x50,11,5,11.945,21.933,0.1304,0.1714,-0.106
0x50,11,5,11.955,21.943,0.3311,-0.0977,0.479
0x50,11,5,11.974,21.962,0.3311,-0.0977,0.479
0x50,11,5,11.974,21.962,-0.4453,-0.1553,1.7026
0x50,11,5,11.994,21.982,-0.4453,-0.1553,1.7026
0x50,11,5,12.006,21.994,-0.2925,-0.0801,1.9868
0x50,11,5,12.013,22.001,-0.2925,-0.0801,1.9868
0x50,11,5,12.023,22.011,-0.0288,0.3057,0.4136
0x50,11,5,12.033,22.021,-0.0288,0.3057,0.4136
0x50,11,5,12.044,22.032,0.4658,0.1714,-0.0464
0x50,11,5,12.054,22.042,0.4658,0.1714,-0.0464
0x50,11,5,12.061,22.049,0.0415,-0.0303,1.3403
0x50,11,5,12.076,22.064,0.0415,-0.0303,1.3403
0x50,11,5,12.079,22.067,-0.396,-0.1226,2.1704
0x50,11,5,12.129,22.117,-0.396,-0.1226,2.1704
0x50,11,5,12.129,22.117,-0.1953,0.085,1.0146
0x50,11,5,12.129,22.117,-0.1953,0.085,1.0146
0x50,11,5,12.129,22.117,0.1899,0.1797,-0.0977
0x50,11,5,12.129,22.117,0.1899,0.1797,-0.0977
0x50,11,5,12.138,22.126,0.3003,-0.1484,0.5811
0x50,11,5,12.142,22.13,0.3003,-0.1484,0.5811
0x50,11,5,12.158,22.146,-0.4678,-0.2266,1.769
0x50,11,5,12.162,22.15,-0.4678,-0.2266,1.769
0x50,11,5,12.176,22.164,-0.3062,-0.1528,1.874
0x50,11,5,12.183,22.171,-0.3062,-0.1528,1.874
0x50,11,5,12.196,22.184,-0.0376,0.2319,0.3652
0x50,11,5,12.221,22.209,-0.0376,0.2319,0.3652
0x50,11,5,12.247,22.235,0.4766,0.1025,0.0264
0x50,11,5,12.273,22.261,0.4766,0.1025,0.0264
0x50,11,5,12.316,22.304,-0.0005,-0.0391,1.3418
0x50,11,5,12.316,22.304,-0.0005,-0.0391,1.3418
0x50,11,5,12.316,22.304,-0.3794,-0.1265,2.1416
0x50,11,5,12.316,22.304,-0.3794,-0.1265,2.1416
0x50,11,5,12.316,22.304,-0.2124,0.168,0.9736
0x50,11,5,12.316,22.304,-0.2124,0.168,0.9736
0x50,11,5,12.317,22.305,0.1108,0.2773,-0.0474
0x50,11,5,12.317,22.305,0.1108,0.2773,-0.0474
0x50,11,5,12.323,22.311,0.3203,0.002,0.7285
0x50,11,5,12.323,22.311,0.3203,0.002,0.7285
0x50,11,5,12.345,22.333,-0.3076,-0.189,1.6641
0x50,11,5,12.345,22.333,-0.3076,-0.189,1.6641
0x50,11,5,12.364,22.352,-0.3081,-0.1348,1.5752
0x50,11,5,12.368,22.356,-0.3081,-0.1348,1.5752
0x50,11,5,12.383,22.371,-0.2285,0.0737,0.5029
0x50,11,5,12.389,22.377,-0.2285,0.0737,0.5029
0x50,11,5,12.404,22.392,0.2974,0.0688,0.5107
0x50,11,5,12.41,22.398,0.2974,0.0688,0.5107
0x50,11,5,12.42,22.408,0.2905,-0.1104,1.144
0x50,11,5,12.431,22.419,0.2905,-0.1104,1.144
0x50,11,5,12.447,22.435,-0.0703,-0.1289,1.3906
0x50,11,5,12.449,22.437,-0.0703,-0.1289,1.3906
0x50,11,5,12.451,22.439,-0.1841,0.0059,1.0757
0x50,11,5,12.463,22.451,-0.1841,0.0059,1.0757
0x50,11,5,12.509,22.497,-0.2876,0.166,0.7085
0x50,11,5,12.51,22.498,-0.2876,0.166,0.7085
0x50,11,5,12.51,22.498,0.0869,0.1689,1.0249
0x50,11,5,12.51,22.498,0.0869,0.1689,1.0249
0x50,11,5,12.514,22.502,0.0498,0.0898,1.0137
0x50,11,5,12.52,22.508,0.0498,0.0898,1.0137
0x50,11,5,12.535,22.523,0.0132,-0.0083,1.0107
0x50,11,5,12.538,22.526,0.0132,-0.0083,1.0107
0x50,11,5,12.554,22.542,-0.2427,-0.0288,1.0371
0x50,11,5,12.572,22.56,-0.2427,-0.0288,1.0371
0x50,11,5,12.572,22.56,-0.29,-0.0127,1.1445
0x50,11,5,12.578,22.566,-0.29,-0.0127,1.1445
0x50,11,5,12.594,22.582,-0.0459,0.0537,1.0103
0x50,11,5,12.646,22.634,-0.0459,0.0537,1.0103
0x50,11,5,12.658,22.646,0.1743,0.0483,0.7446
0x50,11,5,12.692,22.68,0.1743,0.0483,0.7446
0x50,11,5,12.692,22.68,0.2808,-0.0806,0.9346
0x50,11,5,12.692,22.68,0.2808,-0.0806,0.9346
0x50,11,5,12.692,22.68,0.019,-0.1958,1.1523
0x50,11,5,12.692,22.68,0.019,-0.1958,1.1523
0x50,11,5,12.692,22.68,-0.1543,-0.1646,1.1602
0x50,11,5,12.692,22.68,-0.1543,-0.1646,1.1602
0x50,11,5,12.694,22.682,-0.2388,-0.0259,0.895
0x50,11,5,12.71,22.698,-0.2388,-0.0259,0.895
0x50,11,5,12.716,22.704,-0.062,0.1011,0.9136
0x50,11,5,12.728,22.716,-0.062,0.1011,0.9136
0x50,11,5,12.737,22.725,0.0693,0.1455,1.0029
0x50,11,5,12.753,22.741,0.0693,0.1455,1.0029
0x50,11,5,12.758,22.746,0.0376,0.1362,0.9844
0x50,11,5,12.76,22.748,0.0376,0.1362,0.9844
0x50,11,5,12.772,22.76,-0.1182,0.0918,1.0342
0x50,11,5,12.781,22.769,-0.1182,0.0918,1.0342
0x50,11,5,12.788,22.776,-0.3267,0.0962,1.0723
0x50,11,5,12.804,22.792,-0.3267,0.0962,1.0723
0x50,11,5,12.808,22.796,-0.2808,0.0981,1.1001
0x50,11,5,12.823,22.811,-0.2808,0.0981,1.1001
0x50,11,5,12.828,22.816,-0.1074,0.1064,0.9819
0x50,11,5,12.867,22.855,-0.1074,0.1064,0.9819
0x50,11,5,12.869,22.857,0.1323,0.0435,0.9116
0x50,11,5,12.872,22.86,0.1323,0.0435,0.9116
0x50,11,5,12.874,22.862,0.1274,-0.0791,0.9463
0x50,11,5,12.882,22.87,0.1274,-0.0791,0.9463
0x50,11,5,12.93,22.918,0.0117,-0.2085,1.0737
0x50,11,5,12.93,22.918,0.0117,-0.2085,1.0737
0x50,11,5,12.934,22.922,-0.0693,-0.25,1.0454
0x50,11,5,12.937,22.925,-0.0693,-0.25,1.0454
0x50,11,5,12.939,22.927,-0.2256,-0.1274,1.0684
0x50,11,5,12.939,22.927,-0.2256,-0.1274,1.0684
0x50,11,5,12.957,22.945,-0.1772,0.0083,1.1343
0x50,11,5,12.957,22.945,-0.1772,0.0083,1.1343
0x50,11,5,13.018,23.006,-0.2275,0.1177,0.9414
0x50,11,5,13.02,23.008,-0.2275,0.1177,0.9414
0x50,11,5,13.023,23.011,-0.0049,0.1553,0.7773
0x50,11,5,13.025,23.013,-0.0049,0.1553,0.7773
0x50,11,5,13.028,23.016,0.3418,0.1587,0.4937
0x50,11,5,13.03,23.018,0.3418,0.1587,0.4937
0x50,11,5,13.038,23.026,0.4033,0.0786,1.2173
0x50,11,5,13.045,23.033,0.4033,0.0786,1.2173
0x50,11,5,13.06,23.048,0.4697,0.0684,1.4692
0x50,11,5,13.063,23.051,0.4697,0.0684,1.4692
0x50,11,5,13.078,23.066,0.3076,-0.0103,1.1084
0x50,11,5,13.08,23.068,0.3076,-0.0103,1.1084
0x50,11,5,13.118,23.106,-0.2285,-0.0088,0.5811
0x50,11,5,13.118,23.106,-0.2285,-0.0088,0.5811
0x50,11,5,13.118,23.106,-0.2393,-0.1357,0.8818
0x50,11,5,13.118,23.106,-0.2393,-0.1357,0.8818
0x50,11,5,13.133,23.121,-0.3979,-0.1973,1.2144
0x50,11,5,13.135,23.123,-0.3979,-0.1973,1.2144
0x50,11,5,13.148,23.136,-0.3125,-0.1709,1.0947
0x50,11,5,13.159,23.147,-0.3125,-0.1709,1.0947
0x50,11,5,13.169,23.157,-0.0747,-0.0522,0.7891
0x50,11,5,13.175,23.163,-0.0747,-0.0522,0.7891
0x50,11,5,13.19,23.178,0.0366,0.0723,0.854
0x50,11,5,13.194,23.182,0.0366,0.0723,0.854
0x50,11,5,13.209,23.197,0.2764,0.1714,1.2393
0x50,11,5,13.215,23.203,0.2764,0.1714,1.2393
0x50,11,5,13.23,23.218,0.3125,0.2441,1.2202
0x50,11,5,13.247,23.235,0.3125,0.2441,1.2202
0x50,11,5,13.257,23.245,0.1885,0.2305,0.8574
0x50,11,5,13.267,23.255,0.1885,0.2305,0.8574
0x50,11,5,13.306,23.294,0.0703,0.1064,0.7935
0x50,11,5,13.307,23.295,0.0703,0.1064,0.7935
0x50,11,5,13.307,23.295,-0.1191,-0.0884,1.0366
0x50,11,5,13.307,23.295,-0.1191,-0.0884,1.0366
0x50,11,5,13.316,23.304,-0.228,-0.2427,1.1484
0x50,11,5,13.326,23.314,-0.228,-0.2427,1.1484
0x50,11,5,13.385,23.373,-0.2622,-0.2637,0.9536
0x50,11,5,13.388,23.376,-0.2622,-0.2637,0.9536
0x50,11,5,13.391,23.379,-0.1963,-0.1851,0.8262
0x50,11,5,13.393,23.381,-0.1963,-0.1851,0.8262
0x50,11,5,13.395,23.383,-0.0049,-0.0474,1.0332
0x50,11,5,13.398,23.386,-0.0049,-0.0474,1.0332
0x50,11,5,13.4,23.388,0.1699,0.1064,1.1768
0x50,11,5,13.403,23.391,0.1699,0.1064,1.1768
0x50,11,5,13.405,23.393,0.2656,0.2344,1.0215
0x50,11,5,13.42,23.408,0.2656,0.2344,1.0215
0x50,11,5,13.424,23.412,0.2319,0.251,0.8447
0x50,11,5,13.439,23.427,0.2319,0.251,0.8447
0x50,11,5,13.443,23.431,0.1069,0.1387,0.9604
0x50,11,5,13.458,23.446,0.1069,0.1387,0.9604
0x50,11,5,13.464,23.452,-0.0591,-0.0166,1.1206
0x50,11,5,13.507,23.495,-0.0591,-0.0166,1.1206
0x50,11,5,13.546,23.534,-0.2031,-0.1406,1.0464
0x50,11,5,13.546,23.534,-0.2031,-0.1406,1.0464
0x50,11,5,13.546,23.534,-0.2861,-0.1724,0.877
0x50,11,5,13.546,23.534,-0.2861,-0.1724,0.877
0x50,11,5,13.546,23.534,-0.2075,-0.1411,0.9468
0x50,11,5,13.546,23.534,-0.2075,-0.1411,0.9468
0x50,11,5,13.555,23.543,-0.0566,-0.0498,1.1016
0x50,11,5,13.555,23.543,-0.0566,-0.0498,1.1016
0x50,11,5,13.577,23.565,0.1367,0.0654,1.0737
0x50,11,5,13.578,23.566,0.1367,0.0654,1.0737
0x50,11,5,13.597,23.585,0.2441,0.1528,0.915
0x50,11,5,13.6,23.588,0.2441,0.1528,0.915
0x50,11,5,13.616,23.604,0.2471,0.1353,0.9102
0x50,11,5,13.622,23.61,0.2471,0.1353,0.9102
0x50,11,5,13.637,23.625,0.2471,0.1353,0.9102
0x50,11,5,13.64,23.628,0.1519,0.0469,1.0571
0x50,11,5,13.656,23.644,0.1519,0.0469,1.0571
0x50,11,5,13.661,23.649,-0.0054,-0.0508,1.0776
0x50,11,5,13.676,23.664,-0.0054,-0.0508,1.0776
0x50,11,5,13.678,23.666,-0.166,-0.1074,0.9526
0x50,11,5,13.753,23.741,-0.166,-0.1074,0.9526
0x50,11,5,13.756,23.744,-0.2598,-0.106,0.9102
0x50,11,5,13.758,23.746,-0.2598,-0.106,0.9102
0x50,11,5,13.761,23.749,-0.2192,-0.0576,1.0381
0x50,11,5,13.766,23.754,-0.2192,-0.0576,1.0381
0x50,11,5,13.768,23.756,-0.0972,0.0303,1.0903
0x50,11,5,13.771,23.759,-0.0972,0.0303,1.0903
0x50,11,5,13.774,23.762,0.0723,0.1167,1.0024
0x50,11,5,13.776,23.764,0.0723,0.1167,1.0024
0x50,11,5,13.778,23.766,0.188,0.1489,0.9199
0x50,11,5,13.783,23.771,0.188,0.1489,0.9199
0x50,11,5,13.793,23.781,0.2246,0.0947,0.9897
0x50,11,5,13.803,23.791,0.2246,0.0947,0.9897
0x50,11,5,13.814,23.802,0.1582,0,1.0615
0x50,11,5,13.824,23.812,0.1582,0,1.0615
0x50,11,5,13.871,23.859,0.0288,-0.0859,1.0044
0x50,11,5,13.874,23.862,0.0288,-0.0859,1.0044
0x50,11,5,13.879,23.867,-0.1055,-0.1406,0.9263
0x50,11,5,13.879,23.867,-0.1055,-0.1406,0.9263
0x50,11,5,13.884,23.872,-0.1841,-0.1411,0.9688
0x50,11,5,13.922,23.91,-0.1841,-0.1411,0.9688
0x50,11,5,13.923,23.911,-0.1812,-0.0786,1.0552
0x50,11,5,13.923,23.911,-0.1812,-0.0786,1.0552
0x50,11,5,13.924,23.912,-0.0967,0.0244,1.042
0x50,11,5,13.93,23.918,-0.0967,0.0244,1.042
0x50,11,5,13.946,23.934,0.0186,0.127,0.9717
0x50,11,5,13.946,23.934,0.0186,0.127,0.9717
0x50,11,5,13.963,23.951,0.1191,0.1729,0.9717
0x50,11,5,13.97,23.958,0.1191,0.1729,0.9717
0x50,11,5,13.982,23.97,0.1616,0.1465,1.0308
0x50,11,5,13.992,23.98,0.1616,0.1465,1.0308
0x50,11,5,14.002,23.99,0.1265,0.0654,1.0347
0x50,11,5,14.014,24.002,0.1265,0.0654,1.0347
0x50,11,5,14.022,24.01,0.041,-0.0317,0.9712
0x50,11,5,14.024,24.012,0.041,-0.0317,0.9712
0x50,11,5,14.034,24.022,-0.0552,-0.123,0.9487
0x50,11,5,14.04,24.028,-0.0552,-0.123,0.9487
0x50,11,5,14.056,24.044,-0.124,-0.1719,0.9937
0x50,11,5,14.059,24.047,-0.124,-0.1719,0.9937
0x50,11,5,14.085,24.073,-0.1318,-0.147,1.0239
0x50,11,5,14.112,24.1,-0.1318,-0.147,1.0239
0x50,11,5,14.16,24.148,-0.0811,-0.0537,1.0015
0x50,11,5,14.16,24.148,-0.0811,-0.0537,1.0015
0x50,11,5,14.165,24.153,0,0.0576,0.9893
0x50,11,5,14.167,24.155,0,0.0576,0.9893
0x50,11,5,14.169,24.157,0.0801,0.1396,1.0054
0x50,11,5,14.175,24.163,0.0801,0.1396,1.0054
0x50,11,5,14.176,24.164,0.1294,0.1611,1.0303
0x50,11,5,14.18,24.168,0.1294,0.1611,1.0303
0x50,11,5,14.18,24.168,0.1006,0.1274,1.0142
0x50,11,5,14.183,24.171,0.1006,0.1274,1.0142
0x50,11,5,14.192,24.18,0.022,0.0483,0.9863
0x50,11,5,14.211,24.199,0.022,0.0483,0.9863
0x50,11,5,14.211,24.199,-0.0552,-0.0483,0.9863
0x50,11,5,14.231,24.219,-0.0552,-0.0483,0.9863
0x50,11,5,14.242,24.23,-0.1094,-0.1196,0.9927
0x50,11,5,14.262,24.25,-0.1094,-0.1196,0.9927
0x50,11,5,14.263,24.251,-0.1099,-0.1431,0.9844
0x50,11,5,14.267,24.255,-0.1099,-0.1431,0.9844
0x50,11,5,14.282,24.27,-0.0537,-0.1113,0.9766
0x50,11,5,14.286,24.274,-0.0537,-0.1113,0.9766
0x50,11,5,14.297,24.285,0.0317,-0.04,0.998
0x50,11,5,14.307,24.295,0.0317,-0.04,0.998
0x50,11,5,14.349,24.337,0.0996,0.0444,1.0278
0x50,11,5,14.35,24.338,0.0996,0.0444,1.0278
0x50,11,5,14.35,24.338,0.1138,0.1118,1.0225
0x50,11,5,14.352,24.34,0.1138,0.1118,1.0225
0x50,11,5,14.354,24.342,0.0757,0.1353,0.9971
0x50,11,5,14.358,24.346,0.0757,0.1353,0.9971
0x50,11,5,14.373,24.361,-0.002,0.1074,0.999
0x50,11,5,14.38,24.368,-0.002,0.1074,0.999
0x50,11,5,14.392,24.38,-0.083,0.0396,1.0171
0x50,11,5,14.4,24.388,-0.083,0.0396,1.0171
0x50,11,5,14.41,24.398,-0.1284,-0.0308,1.0029
0x50,11,5,14.42,24.408,-0.1284,-0.0308,1.0029
0x50,11,5,14.429,24.417,-0.1123,-0.082,0.9717
0x50,11,5,14.482,24.47,-0.1123,-0.082,0.9717
0x50,11,5,14.49,24.478,-0.0444,-0.1011,0.9707
0x50,11,5,14.492,24.48,-0.0444,-0.1011,0.9707
0x50,11,5,14.495,24.483,0.0483,-0.0879,1
0x50,11,5,14.5,24.488,0.0483,-0.0879,1
0x50,11,5,14.538,24.526,0.1274,-0.0464,1.0083
0x50,11,5,14.538,24.526,0.1274,-0.0464,1.0083
0x50,11,5,14.538,24.526,0.146,0.0088,0.9932
0x50,11,5,14.538,24.526,0.146,0.0088,0.9932
0x50,11,5,14.542,24.53,0.0952,0.0527,0.9995
0x50,11,5,14.542,24.53,0.0952,0.0527,0.9995
0x50,11,5,14.56,24.548,0.0034,0.0737,1.0195
0x50,11,5,14.56,24.548,0.0034,0.0737,1.0195
0x50,11,5,14.579,24.567,-0.0908,0.0737,1.0181
0x50,11,5,14.585,24.573,-0.0908,0.0737,1.0181
0x50,11,5,14.604,24.592,-0.1499,0.0586,0.999
0x50,11,5,14.606,24.594,-0.1499,0.0586,0.999
0x50,11,5,14.617,24.605,-0.1431,0.0293,0.9951
0x50,11,5,14.628,24.616,-0.1431,0.0293,0.9951
0x50,11,5,14.641,24.629,-0.0752,-0.002,1.0039
0x50,11,5,14.644,24.632,-0.0752,-0.002,1.0039
0x50,11,5,14.659,24.647,0.0171,-0.0244,1.0029
0x50,11,5,14.662,24.65,0.0171,-0.0244,1.0029
0x50,11,5,14.668,24.656,0.1016,-0.0386,0.9912
0x50,11,5,14.678,24.666,0.1016,-0.0386,0.9912
0x50,11,5,14.689,24.677,0.1421,-0.0479,0.9858
0x50,11,5,14.697,24.685,0.1421,-0.0479,0.9858
0x50,11,5,14.712,24.7,0.1221,-0.0498,0.9946
0x50,11,5,14.716,24.704,0.1221,-0.0498,0.9946
0x50,11,5,14.732,24.72,0.0532,-0.041,0.9995
0x50,11,5,14.735,24.723,0.0532,-0.041,0.9995
0x50,11,5,14.773,24.761,-0.0264,-0.021,0.9941
0x50,11,5,14.774,24.762,-0.0264,-0.021,0.9941
0x50,11,5,14.79,24.778,-0.0908,0.0063,0.9937
0x50,11,5,14.793,24.781,-0.0908,0.0063,0.9937
0x50,11,5,14.796,24.784,-0.1157,0.0386,1.0078
0x50,11,5,14.823,24.811,-0.1157,0.0386,1.0078
0x50,11,5,14.823,24.811,-0.0952,0.0698,1.0146
0x50,11,5,14.849,24.837,-0.0952,0.0698,1.0146
0x50,11,5,14.862,24.85,-0.0381,0.085,1.0117
0x50,11,5,14.867,24.855,-0.0381,0.085,1.0117
0x50,11,5,14.87,24.858,0.0254,0.0737,1.0083
0x50,11,5,14.872,24.86,0.0254,0.0737,1.0083
0x50,11,5,14.875,24.863,0.0718,0.0371,1.0029
0x50,11,5,14.885,24.873,0.0718,0.0371,1.0029
0x50,11,5,14.896,24.884,0.083,-0.0171,0.9961
0x50,11,5,14.907,24.895,0.083,-0.0171,0.9961
0x50,11,5,14.913,24.901,0.0576,-0.0684,0.9883
0x50,11,5,14.959,24.947,0.0576,-0.0684,0.9883
0x50,11,5,14.959,24.947,0.0112,-0.0996,0.9854
0x50,11,5,14.959,24.947,0.0112,-0.0996,0.9854
0x50,11,5,14.959,24.947,-0.0317,-0.0977,0.9893
0x50,11,5,14.967,24.955,-0.0317,-0.0977,0.9893
0x50,11,5,14.973,24.961,-0.0503,-0.0586,0.9946
0x50,11,5,14.988,24.976,-0.0503,-0.0586,0.9946
0x50,11,5,14.99,24.978,-0.043,0.0034,0.9976
0x50,11,5,15.006,24.994,-0.043,0.0034,0.9976
0x50,11,5,15.008,24.996,-0.0171,0.0635,1.0029
0x50,11,5,15.019,25.007,-0.0171,0.0635,1.0029
0x50,11,5,15.023,25.011,0.0132,0.1016,1.0083
0x50,11,5,15.035,25.023,0.0132,0.1016,1.0083
0x50,11,5,15.046,25.034,0.0288,0.1069,1.0103
0x50,11,5,15.056,25.044,0.0288,0.1069,1.0103
0x50,11,5,15.063,25.051,0.0244,0.0762,1.0093
0x50,11,5,15.08,25.068,0.0244,0.0762,1.0093
0x50,11,5,15.082,25.07,0.001,0.0215,1.002
0x50,11,5,15.096,25.084,0.001,0.0215,1.002
0x50,11,5,15.147,25.135,-0.019,-0.0352,0.9971
0x50,11,5,15.148,25.136,-0.019,-0.0352,0.9971
0x50,11,5,15.148,25.136,-0.0283,-0.0762,0.9932
0x50,11,5,15.148,25.136,-0.0283,-0.0762,0.9932
0x50,11,5,15.158,25.146,-0.0181,-0.0908,0.9932
0x50,11,5,15.158,25.146,-0.0181,-0.0908,0.9932
0x50,11,5,15.221,25.209,0.0049,-0.0742,0.9912
0x50,11,5,15.221,25.209,0.0049,-0.0742,0.9912
0x50,11,5,15.226,25.214,0.0293,-0.0308,0.9941
0x50,11,5,15.228,25.216,0.0293,-0.0308,0.9941
0x50,11,5,15.231,25.219,0.0381,0.0181,1.0005
0x50,11,5,15.233,25.221,0.0381,0.0181,1.0005
0x50,11,5,15.236,25.224,0.0278,0.0542,1.0073
0x50,11,5,15.243,25.231,0.0278,0.0542,1.0073
0x50,11,5,15.257,25.245,0.002,0.0698,1.0063
0x50,11,5,15.26,25.248,0.002,0.0698,1.0063
0x50,11,5,15.275,25.263,-0.0298,0.063,1.002
0x50,11,5,15.278,25.266,-0.0298,0.063,1.002
0x50,11,5,15.294,25.282,-0.0532,0.0405,1.0044
0x50,11,5,15.31,25.298,-0.0532,0.0405,1.0044
0x50,11,5,15.31,25.298,-0.0537,0.0103,1
0x50,11,5,15.328,25.316,-0.0537,0.0103,1
0x50,11,5,15.328,25.316,-0.0264,-0.0156,0.9961
0x50,11,5,15.344,25.332,-0.0264,-0.0156,0.9961
0x50,11,5,15.36,25.348,0.0122,-0.0337,0.9941
0x50,11,5,15.36,25.348,0.0122,-0.0337,0.9941