address,Hour,Minute,Second,Time,ax,ay,az
0x50,9,38,47.771,0,0.0005,-0.0278,0.9976
0x50,9,38,47.771,0,-0.001,-0.0361,1.001
0x50,9,38,47.771,0,-0.001,-0.0361,1.001
0x50,9,38,47.806,0.035,-0.0161,-0.0278,0.9995
0x50,9,38,47.806,0.035,-0.0161,-0.0278,0.9995
0x50,9,38,47.806,0.035,-0.0171,-0.0269,1.001
0x50,9,38,47.806,0.035,-0.0171,-0.0269,1.001
0x50,9,38,47.817,0.046,-0.0356,-0.0117,1.0132
0x50,9,38,47.82,0.049,-0.0356,-0.0117,1.0132
0x50,9,38,47.854,0.083,-0.0396,0.0044,1.0049
0x50,9,38,47.89,0.119,-0.0396,0.0044,1.0049
0x50,9,38,47.896,0.125,-0.0405,0.0166,0.9995
0x50,9,38,47.898,0.127,-0.0405,0.0166,0.9995
0x50,9,38,47.9,0.129,-0.0332,0.0317,1.0151
0x50,9,38,47.903,0.132,-0.0332,0.0317,1.0151
0x50,9,38,47.905,0.134,-0.0171,0.0278,1.0127
0x50,9,38,47.908,0.137,-0.0171,0.0278,1.0127
0x50,9,38,47.913,0.142,-0.0073,0.0376,1.0063
0x50,9,38,47.928,0.157,-0.0073,0.0376,1.0063
0x50,9,38,47.931,0.16,0.0034,0.0283,1.019
0x50,9,38,47.957,0.186,0.0034,0.0283,1.019
0x50,9,38,47.994,0.223,-0.0117,0.0176,0.9966
0x50,9,38,47.994,0.223,-0.0117,0.0176,0.9966
0x50,9,38,47.994,0.223,-0.0303,-0.0122,0.9819
0x50,9,38,47.997,0.226,-0.0303,-0.0122,0.9819
0x50,9,38,48.007,0.236,-0.0332,-0.0483,0.9858
0x50,9,38,48.015,0.244,-0.0332,-0.0483,0.9858
0x50,9,38,48.023,0.252,-0.0103,-0.0737,1.0303
0x50,9,38,48.03,0.259,-0.0103,-0.0737,1.0303
0x50,9,38,48.048,0.277,0.0044,-0.0674,1.0137
0x50,9,38,48.05,0.279,0.0044,-0.0674,1.0137
0x50,9,38,48.05,0.279,0.0166,-0.0615,0.9727
0x50,9,38,48.07,0.299,0.0166,-0.0615,0.9727
0x50,9,38,48.074,0.303,0.0112,-0.0366,0.9839
0x50,9,38,48.084,0.313,0.0112,-0.0366,0.9839
0x50,9,38,48.095,0.324,0.0112,-0.041,0.9907
0x50,9,38,48.105,0.334,0.0112,-0.041,0.9907
0x50,9,38,48.112,0.341,0.0078,-0.0405,0.9829
0x50,9,38,48.126,0.355,0.0078,-0.0405,0.9829
0x50,9,38,48.13,0.359,-0.0273,-0.0498,1.0215
0x50,9,38,48.146,0.375,-0.0273,-0.0498,1.0215
0x50,9,38,48.183,0.412,-0.0732,-0.0283,1.0171
0x50,9,38,48.186,0.415,-0.0732,-0.0283,1.0171
0x50,9,38,48.188,0.417,-0.0957,0.0195,1.0024
0x50,9,38,48.19,0.419,-0.0957,0.0195,1.0024
0x50,9,38,48.193,0.422,-0.0737,0.0674,1.0068
0x50,9,38,48.201,0.43,-0.0737,0.0674,1.0068
0x50,9,38,48.226,0.455,-0.0688,0.1177,1.0059
0x50,9,38,48.251,0.48,-0.0688,0.1177,1.0059
0x50,9,38,48.262,0.491,-0.0269,0.1392,1.0361
0x50,9,38,48.265,0.494,-0.0269,0.1392,1.0361
0x50,9,38,48.267,0.496,-0.0039,0.1123,0.9878
0x50,9,38,48.27,0.499,-0.0039,0.1123,0.9878
0x50,9,38,48.272,0.501,-0.0107,0.0649,0.9849
0x50,9,38,48.283,0.512,-0.0107,0.0649,0.9849
0x50,9,38,48.304,0.533,0.0015,-0.0322,1.0225
0x50,9,38,48.304,0.533,0.0015,-0.0322,1.0225
0x50,9,38,48.307,0.536,-0.0088,-0.0439,1.0381
0x50,9,38,48.323,0.552,-0.0088,-0.0439,1.0381
0x50,9,38,48.329,0.558,-0.0337,-0.1309,0.959
0x50,9,38,48.365,0.594,-0.0337,-0.1309,0.959
0x50,9,38,48.372,0.601,-0.0215,-0.0962,1.001
0x50,9,38,48.374,0.603,-0.0215,-0.0962,1.001
0x50,9,38,48.377,0.606,-0.001,-0.1157,0.9722
0x50,9,38,48.381,0.61,-0.001,-0.1157,0.9722
0x50,9,38,48.391,0.62,0.0078,-0.0498,0.9629
0x50,9,38,48.407,0.636,0.0078,-0.0498,0.9629
0x50,9,38,48.41,0.639,0.0142,-0.0557,1.0083
0x50,9,38,48.425,0.654,0.0142,-0.0557,1.0083
0x50,9,38,48.431,0.66,-0.0083,-0.0098,1.0347
0x50,9,38,48.442,0.671,-0.0083,-0.0098,1.0347
0x50,9,38,48.452,0.681,-0.0444,0.0151,1.0059
0x50,9,38,48.46,0.689,-0.0444,0.0151,1.0059
0x50,9,38,48.47,0.699,-0.0874,0.0669,0.9902
0x50,9,38,48.481,0.71,-0.0874,0.0669,0.9902
0x50,9,38,48.493,0.722,-0.1011,0.0981,1.0293
0x50,9,38,48.497,0.726,-0.1011,0.0981,1.0293
0x50,9,38,48.512,0.741,-0.083,0.103,1.0083
0x50,9,38,48.519,0.748,-0.083,0.103,1.0083
0x50,9,38,48.549,0.778,-0.0405,0.1138,0.9878
0x50,9,38,48.551,0.78,-0.0405,0.1138,0.9878
0x50,9,38,48.554,0.783,0.0049,0.0518,0.9956
0x50,9,38,48.558,0.787,0.0049,0.0518,0.9956
0x50,9,38,48.604,0.833,0.0308,0.0322,0.9858
0x50,9,38,48.609,0.838,0.0308,0.0322,0.9858
0x50,9,38,48.612,0.841,0.043,-0.0557,1.0229
0x50,9,38,48.636,0.865,0.043,-0.0557,1.0229
0x50,9,38,48.661,0.89,-0.0186,-0.0977,1.0015
0x50,9,38,48.669,0.898,-0.0186,-0.0977,1.0015
0x50,9,38,48.669,0.898,-0.0283,-0.1147,0.9717
0x50,9,38,48.674,0.903,-0.0283,-0.1147,0.9717
0x50,9,38,48.677,0.906,-0.0273,-0.0747,0.9683
0x50,9,38,48.68,0.909,-0.0273,-0.0747,0.9683
0x50,9,38,48.682,0.911,-0.0244,-0.0396,1.0059
0x50,9,38,48.685,0.914,-0.0244,-0.0396,1.0059
0x50,9,38,48.703,0.932,-0.0098,-0.0034,1.0103
0x50,9,38,48.706,0.935,-0.0098,-0.0034,1.0103
0x50,9,38,48.706,0.935,-0.019,0.0459,1.022
0x50,9,38,48.719,0.948,-0.019,0.0459,1.022
0x50,9,38,48.729,0.958,-0.0327,0.0552,1.0376
0x50,9,38,48.74,0.969,-0.0327,0.0552,1.0376
0x50,9,38,48.751,0.98,-0.0728,0.084,0.9863
0x50,9,38,48.791,1.02,-0.0728,0.084,0.9863
0x50,9,38,48.791,1.02,-0.0952,0.0688,0.9893
0x50,9,38,48.791,1.02,-0.0952,0.0688,0.9893
0x50,9,38,48.791,1.02,-0.1021,0.0635,1.0439
0x50,9,38,48.798,1.027,-0.1021,0.0635,1.0439
0x50,9,38,48.808,1.037,-0.0435,0.0474,1.0415
0x50,9,38,48.821,1.05,-0.0435,0.0474,1.0415
0x50,9,38,48.824,1.053,0.0229,0.0322,0.9844
0x50,9,38,48.84,1.069,0.0229,0.0322,0.9844
0x50,9,38,48.846,1.075,0.064,0.0127,0.9712
0x50,9,38,48.861,1.09,0.064,0.0127,0.9712
0x50,9,38,48.865,1.094,0.0503,-0.0679,0.9653
0x50,9,38,48.88,1.109,0.0503,-0.0679,0.9653
0x50,9,38,48.886,1.115,-0.0269,-0.1069,1.0176
0x50,9,38,48.901,1.13,-0.0269,-0.1069,1.0176
0x50,9,38,48.907,1.136,-0.0737,-0.1338,1.0264
0x50,9,38,48.916,1.145,-0.0737,-0.1338,1.0264
0x50,9,38,48.926,1.155,-0.1216,-0.0742,0.9883
0x50,9,38,48.936,1.165,-0.1216,-0.0742,0.9883
0x50,9,38,48.974,1.203,-0.0854,0.001,1.0293
0x50,9,38,48.986,1.215,-0.0854,0.001,1.0293
0x50,9,38,48.994,1.223,-0.0195,0.0762,1.0249
0x50,9,38,48.999,1.228,-0.0195,0.0762,1.0249
0x50,9,38,49.004,1.233,0.0469,0.1196,1.0117
0x50,9,38,49.006,1.235,0.0469,0.1196,1.0117
0x50,9,38,49.019,1.248,0.0356,0.1221,1.0225
0x50,9,38,49.021,1.25,0.0356,0.1221,1.0225
0x50,9,38,49.025,1.254,-0.0396,0.0811,1.0215
0x50,9,38,49.04,1.269,-0.0396,0.0811,1.0215
0x50,9,38,49.047,1.276,-0.1709,0.0186,0.9624
0x50,9,38,49.064,1.293,-0.1709,0.0186,0.9624
0x50,9,38,49.066,1.295,-0.2358,0.002,1.02
0x50,9,38,49.081,1.31,-0.2358,0.002,1.02
0x50,9,38,49.087,1.316,-0.1426,-0.002,1.0869
0x50,9,38,49.099,1.328,-0.1426,-0.002,1.0869
0x50,9,38,49.106,1.335,0.0352,0.0454,1.0044
0x50,9,38,49.119,1.348,0.0352,0.0454,1.0044
0x50,9,38,49.126,1.355,0.229,0.0029,0.9141
0x50,9,38,49.14,1.369,0.229,0.0029,0.9141
0x50,9,38,49.144,1.373,0.2334,-0.0688,0.9336
0x50,9,38,49.159,1.388,0.2334,-0.0688,0.9336
0x50,9,38,49.167,1.396,0.0483,-0.1772,1.0386
0x50,9,38,49.218,1.447,0.0483,-0.1772,1.0386
0x50,9,38,49.219,1.448,-0.1851,-0.1855,1.084
0x50,9,38,49.219,1.448,-0.1851,-0.1855,1.084
0x50,9,38,49.219,1.448,-0.2495,-0.1221,1.0225
0x50,9,38,49.219,1.448,-0.2495,-0.1221,1.0225
0x50,9,38,49.227,1.456,-0.1025,0.0249,1.0103
0x50,9,38,49.233,1.462,-0.1025,0.0249,1.0103
0x50,9,38,49.248,1.477,0.0659,0.0786,0.8789
0x50,9,38,49.277,1.506,0.0659,0.0786,0.8789
0x50,9,38,49.278,1.507,0.1079,0.0586,0.877
0x50,9,38,49.289,1.518,0.1079,0.0586,0.877
0x50,9,38,49.292,1.521,-0.0649,0.0254,1.1304
0x50,9,38,49.36,1.589,-0.0649,0.0254,1.1304
0x50,9,38,49.367,1.596,-0.1367,0.043,1.2231
0x50,9,38,49.367,1.596,-0.1367,0.043,1.2231
0x50,9,38,49.367,1.596,-0.0752,0.1011,0.9756
0x50,9,38,49.405,1.634,-0.0752,0.1011,0.9756
0x50,9,38,49.406,1.635,0.0718,0.1074,0.9028
0x50,9,38,49.406,1.635,0.0718,0.1074,0.9028
0x50,9,38,49.406,1.635,0.1104,-0.0332,0.8398
0x50,9,38,49.406,1.635,0.1104,-0.0332,0.8398
0x50,9,38,49.406,1.635,-0.1094,-0.1113,1.0127
0x50,9,38,49.406,1.635,-0.1094,-0.1113,1.0127
0x50,9,38,49.406,1.635,-0.272,-0.165,1.2158
0x50,9,38,49.419,1.648,-0.272,-0.165,1.2158
0x50,9,38,49.425,1.654,-0.0635,-0.0903,1.1152
0x50,9,38,49.435,1.664,-0.0635,-0.0903,1.1152
0x50,9,38,49.447,1.676,0.2178,0.0596,0.8589
0x50,9,38,49.454,1.683,0.2178,0.0596,0.8589
0x50,9,38,49.463,1.692,0.3086,-0.0581,0.7305
0x50,9,38,49.474,1.703,0.3086,-0.0581,0.7305
0x50,9,38,49.485,1.714,0.0005,-0.084,1.085
0x50,9,38,49.495,1.724,0.0005,-0.084,1.085
0x50,9,38,49.502,1.731,-0.2822,-0.0151,1.3164
0x50,9,38,49.518,1.747,-0.2822,-0.0151,1.3164
0x50,9,38,49.521,1.75,-0.207,-0.042,0.9751
0x50,9,38,49.536,1.765,-0.207,-0.042,0.9751
0x50,9,38,49.54,1.769,0.1431,0.165,0.8633
0x50,9,38,49.555,1.784,0.1431,0.165,0.8633
0x50,9,38,49.597,1.826,0.0166,-0.0225,0.8345
0x50,9,38,49.597,1.826,0.0166,-0.0225,0.8345
0x50,9,38,49.597,1.826,-0.2188,-0.0254,1.1099
0x50,9,38,49.597,1.826,-0.2188,-0.0254,1.1099
0x50,9,38,49.602,1.831,-0.3652,0.082,1.2222
0x50,9,38,49.612,1.841,-0.3652,0.082,1.2222
0x50,9,38,49.632,1.861,-0.0366,-0.0142,0.9292
0x50,9,38,49.644,1.873,-0.0366,-0.0142,0.9292
0x50,9,38,49.649,1.878,0.4878,0.1543,0.8901
0x50,9,38,49.658,1.887,0.4878,0.1543,0.8901
0x50,9,38,49.662,1.891,0.2563,-0.0088,0.8042
0x50,9,38,49.691,1.92,0.2563,-0.0088,0.8042
0x50,9,38,49.716,1.945,-0.2793,-0.0029,1.3311
0x50,9,38,49.732,1.961,-0.2793,-0.0029,1.3311
0x50,9,38,49.735,1.964,-0.2793,-0.0029,1.3311
0x50,9,38,49.737,1.966,-0.2603,-0.0146,1.1035
0x50,9,38,49.74,1.969,-0.2603,-0.0146,1.1035
0x50,9,38,49.742,1.971,0.1313,-0.0469,0.8018
0x50,9,38,49.747,1.976,0.1313,-0.0469,0.8018
0x50,9,38,49.788,2.017,0.1411,-0.1768,0.9067
0x50,9,38,49.789,2.018,0.1411,-0.1768,0.9067
0x50,9,38,49.789,2.018,-0.2085,-0.1299,1.1196
0x50,9,38,49.789,2.018,-0.2085,-0.1299,1.1196
0x50,9,38,49.794,2.023,-0.2349,-0.0273,1.0352
0x50,9,38,49.804,2.033,-0.2349,-0.0273,1.0352
0x50,9,38,49.811,2.04,0.0957,-0.0957,0.9824
0x50,9,38,49.826,2.055,0.0957,-0.0957,0.9824
0x50,9,38,49.829,2.058,0.4541,-0.0649,0.7993
0x50,9,38,49.845,2.074,0.4541,-0.0649,0.7993
0x50,9,38,49.849,2.078,0.0952,-0.1743,0.938
0x50,9,38,49.861,2.09,0.0952,-0.1743,0.938
0x50,9,38,49.873,2.102,-0.4541,-0.0581,1.1909
0x50,9,38,49.883,2.112,-0.4541,-0.0581,1.1909
0x50,9,38,49.924,2.153,-0.519,0.0015,1.082
0x50,9,38,49.924,2.153,-0.519,0.0015,1.082
0x50,9,38,49.929,2.158,0.0044,0.125,0.8979
0x50,9,38,49.931,2.16,0.0044,0.125,0.8979
0x50,9,38,49.941,2.17,0.3086,0.0366,0.7246
0x50,9,38,49.95,2.179,0.3086,0.0366,0.7246
0x50,9,38,49.965,2.194,-0.0098,0.1387,1.3105
0x50,9,38,49.965,2.194,-0.0098,0.1387,1.3105
0x50,9,38,49.983,2.212,-0.0781,0.0728,1.2896
0x50,9,38,49.984,2.213,-0.0781,0.0728,1.2896
0x50,9,38,50.026,2.255,-0.1587,0.1514,0.8052
0x50,9,38,50.026,2.255,-0.1587,0.1514,0.8052
0x50,9,38,50.026,2.255,0.3901,-0.0913,0.8345
0x50,9,38,50.026,2.255,0.3901,-0.0913,0.8345
0x50,9,38,50.035,2.264,0.0298,-0.1821,0.8071
0x50,9,38,50.038,2.267,0.0298,-0.1821,0.8071
0x50,9,38,50.063,2.292,-0.4336,-0.0791,1.2402
0x50,9,38,50.091,2.32,-0.4336,-0.0791,1.2402
0x50,9,38,50.103,2.332,-0.4443,-0.3218,1.0293
0x50,9,38,50.106,2.335,-0.4443,-0.3218,1.0293
0x50,9,38,50.108,2.337,-0.1196,-0.0112,0.9517
0x50,9,38,50.11,2.339,-0.1196,-0.0112,0.9517
0x50,9,38,50.113,2.342,0.3042,-0.2788,0.9331
0x50,9,38,50.117,2.346,0.3042,-0.2788,0.9331
0x50,9,38,50.133,2.362,-0.0737,-0.0371,0.9746
0x50,9,38,50.138,2.367,-0.0737,-0.0371,0.9746
0x50,9,38,50.154,2.383,0.0571,0.1626,1.2969
0x50,9,38,50.158,2.387,0.0571,0.1626,1.2969
0x50,9,38,50.172,2.401,0.1572,0.061,0.8691
0x50,9,38,50.176,2.405,0.1572,0.061,0.8691
0x50,9,38,50.21,2.439,0.3135,0.312,0.6357
0x50,9,38,50.211,2.44,0.3135,0.312,0.6357
0x50,9,38,50.211,2.44,0.2109,-0.1509,1.1963
0x50,9,38,50.217,2.446,0.2109,-0.1509,1.1963
0x50,9,38,50.232,2.461,-0.3589,0.0898,1.3525
0x50,9,38,50.236,2.465,-0.3589,0.0898,1.3525
0x50,9,38,50.251,2.48,-0.4902,-0.0845,0.9888
0x50,9,38,50.272,2.501,-0.4902,-0.0845,0.9888
0x50,9,38,50.275,2.504,-0.2324,0.082,0.9028
0x50,9,38,50.288,2.517,-0.2324,0.082,0.9028
0x50,9,38,50.291,2.52,0.1392,-0.0127,0.7192
0x50,9,38,50.301,2.53,0.1392,-0.0127,0.7192
0x50,9,38,50.311,2.54,0.0171,0.0327,0.9819
0x50,9,38,50.321,2.55,0.0171,0.0327,0.9819
0x50,9,38,50.331,2.56,0.0996,0.0557,1.5151
0x50,9,38,50.34,2.569,0.0996,0.0557,1.5151
0x50,9,38,50.351,2.58,0.3726,0.0703,0.9736
0x50,9,38,50.36,2.589,0.3726,0.0703,0.9736
0x50,9,38,50.392,2.621,0.3335,0.0425,0.6597
0x50,9,38,50.392,2.621,0.3335,0.0425,0.6597
0x50,9,38,50.392,2.621,-0.1431,-0.1685,0.8057
0x50,9,38,50.398,2.627,-0.1431,-0.1685,0.8057
0x50,9,38,50.428,2.657,-0.6494,-0.0728,1.2666
0x50,9,38,50.453,2.682,-0.6494,-0.0728,1.2666
0x50,9,38,50.463,2.692,-0.4536,-0.3062,1.2139
0x50,9,38,50.466,2.695,-0.4536,-0.3062,1.2139
0x50,9,38,50.468,2.697,-0.0122,0.084,0.833
0x50,9,38,50.471,2.7,-0.0122,0.084,0.833
0x50,9,38,50.474,2.703,0.3574,-0.0688,0.6265
0x50,9,38,50.477,2.706,0.3574,-0.0688,0.6265
0x50,9,38,50.488,2.717,0.0532,0.0874,1.2876
0x50,9,38,50.498,2.727,0.0532,0.0874,1.2876
0x50,9,38,50.506,2.735,0.1108,0.1699,1.4658
0x50,9,38,50.521,2.75,0.1108,0.1699,1.4658
0x50,9,38,50.525,2.754,0.1753,0.0269,0.5601
0x50,9,38,50.564,2.793,0.1753,0.0269,0.5601
0x50,9,38,50.569,2.798,0.3711,0.0723,0.7461
0x50,9,38,50.571,2.8,0.3711,0.0723,0.7461
0x50,9,38,50.575,2.804,-0.4097,-0.1128,1.1787
0x50,9,38,50.59,2.819,-0.4097,-0.1128,1.1787
0x50,9,38,50.594,2.823,-0.5996,-0.0137,1.4854
0x50,9,38,50.594,2.823,-0.5996,-0.0137,1.4854
0x50,9,38,50.632,2.861,-0.2852,-0.1626,0.7813
0x50,9,38,50.632,2.861,-0.2852,-0.1626,0.7813
0x50,9,38,50.632,2.861,0.043,0.0542,0.542
0x50,9,38,50.64,2.869,0.043,0.0542,0.542
0x50,9,38,50.65,2.879,-0.0024,-0.0869,0.9629
0x50,9,38,50.656,2.885,-0.0024,-0.0869,0.9629
0x50,9,38,50.671,2.9,-0.0117,0.0732,1.7974
0x50,9,38,50.675,2.904,-0.0117,0.0732,1.7974
0x50,9,38,50.69,2.919,0.2256,0.0737,0.9429
0x50,9,38,50.696,2.925,0.2256,0.0737,0.9429
0x50,9,38,50.708,2.937,0.5635,0.1289,0.2886
0x50,9,38,50.717,2.946,0.5635,0.1289,0.2886
0x50,9,38,50.727,2.956,0.2026,-0.1528,1.0366
0x50,9,38,50.737,2.966,0.2026,-0.1528,1.0366
0x50,9,38,50.747,2.976,-0.5972,-0.0264,1.6885
0x50,9,38,50.756,2.985,-0.5972,-0.0264,1.6885
0x50,9,38,50.772,3.001,-0.4917,-0.3174,0.9702
0x50,9,38,50.774,3.003,-0.4917,-0.3174,0.9702
0x50,9,38,50.815,3.044,-0.27,0.0776,0.541
0x50,9,38,50.834,3.063,-0.27,0.0776,0.541
0x50,9,38,50.836,3.065,0.1484,-0.1079,0.7197
0x50,9,38,50.839,3.068,0.1484,-0.1079,0.7197
0x50,9,38,50.841,3.07,-0.1182,-0.0098,1.4482
0x50,9,38,50.846,3.075,-0.1182,-0.0098,1.4482
0x50,9,38,50.846,3.075,0.1655,0.2324,1.4976
0x50,9,38,50.863,3.092,0.1655,0.2324,1.4976
0x50,9,38,50.863,3.092,0.5576,0.0972,0.4155
0x50,9,38,50.879,3.108,0.5576,0.0972,0.4155
0x50,9,38,50.883,3.112,0.4609,0.0708,0.7026
0x50,9,38,50.903,3.132,0.4609,0.0708,0.7026
0x50,9,38,50.914,3.143,-0.4893,-0.0483,1.2466
0x50,9,38,50.929,3.158,-0.4893,-0.0483,1.2466
0x50,9,38,50.932,3.161,-0.6753,-0.0337,1.5073
0x50,9,38,50.934,3.163,-0.6753,-0.0337,1.5073
0x50,9,38,50.953,3.182,-0.4604,-0.251,0.6509
0x50,9,38,50.954,3.183,-0.4604,-0.251,0.6509
0x50,9,38,50.97,3.199,0.0605,-0.0073,0.522
0x50,9,38,50.973,3.202,0.0605,-0.0073,0.522
0x50,9,38,50.99,3.219,0.0361,-0.125,1.0215
0x50,9,38,50.993,3.222,0.0361,-0.125,1.0215
0x50,9,38,51.008,3.237,0.2021,0.1543,1.8335
0x50,9,38,51.012,3.241,0.2021,0.1543,1.8335
0x50,9,38,51.054,3.283,0.4897,0.02,0.7593
0x50,9,38,51.054,3.283,0.4897,0.02,0.7593
0x50,9,38,51.054,3.283,0.666,0.1646,0.4517
0x50,9,38,51.054,3.283,0.666,0.1646,0.4517
0x50,9,38,51.071,3.3,-0.0645,-0.1577,1.0957
0x50,9,38,51.073,3.302,-0.0645,-0.1577,1.0957
0x50,9,38,51.088,3.317,-0.7808,-0.0098,1.6509
0x50,9,38,51.092,3.321,-0.7808,-0.0098,1.6509
0x50,9,38,51.106,3.335,-0.6309,-0.3242,0.8359
0x50,9,38,51.113,3.342,-0.6309,-0.3242,0.8359
0x50,9,38,51.123,3.352,-0.2515,0.0547,0.561
0x50,9,38,51.133,3.362,-0.2515,0.0547,0.561
0x50,9,38,51.164,3.393,0.0605,-0.0845,0.7324
0x50,9,38,51.189,3.418,0.0605,-0.0845,0.7324
0x50,9,38,51.244,3.473,0.0015,0.0806,1.6084
0x50,9,38,51.244,3.473,0.0015,0.0806,1.6084
0x50,9,38,51.244,3.473,0.3843,0.1895,1.3604
0x50,9,38,51.244,3.473,0.3843,0.1895,1.3604
0x50,9,38,51.245,3.474,0.668,0.2046,0.3818
0x50,9,38,51.245,3.474,0.668,0.2046,0.3818
0x50,9,38,51.25,3.479,0.4429,-0.0288,0.6641
0x50,9,38,51.25,3.479,0.4429,-0.0288,0.6641
0x50,9,38,51.255,3.484,-0.5503,-0.0234,1.46
0x50,9,38,51.255,3.484,-0.5503,-0.0234,1.46
0x50,9,38,51.265,3.494,-0.7349,-0.229,1.335
0x50,9,38,51.275,3.504,-0.7349,-0.229,1.335
0x50,9,38,51.285,3.514,-0.4844,-0.1733,0.7251
0x50,9,38,51.296,3.525,-0.4844,-0.1733,0.7251
0x50,9,38,51.303,3.532,0.0313,-0.0386,0.4409
0x50,9,38,51.318,3.547,0.0313,-0.0386,0.4409
0x50,9,38,51.321,3.55,-0.0381,-0.0635,1.0684
0x50,9,38,51.335,3.564,-0.0381,-0.0635,1.0684
0x50,9,38,51.345,3.574,0.2456,0.167,1.8916
0x50,9,38,51.353,3.582,0.2456,0.167,1.8916
0x50,9,38,51.367,3.596,0.6992,0.0654,0.7686
0x50,9,38,51.371,3.6,0.6992,0.0654,0.7686
0x50,9,38,51.386,3.615,0.6143,0.1265,0.4355
0x50,9,38,51.39,3.619,0.6143,0.1265,0.4355
0x50,9,38,51.439,3.668,-0.335,-0.0679,1.0654
0x50,9,38,51.439,3.668,-0.335,-0.0679,1.0654
0x50,9,38,51.439,3.668,-0.8701,0.0024,1.6895
0x50,9,38,51.439,3.668,-0.8701,0.0024,1.6895
0x50,9,38,51.441,3.67,-0.6846,-0.355,0.8481
0x50,9,38,51.452,3.681,-0.6846,-0.355,0.8481
0x50,9,38,51.462,3.691,-0.1558,0.0479,0.4795
0x50,9,38,51.488,3.717,-0.1558,0.0479,0.4795
0x50,9,38,51.488,3.717,0.1099,-0.0688,0.731
0x50,9,38,51.49,3.719,0.1099,-0.0688,0.731
0x50,9,38,51.506,3.735,0.1904,0.1509,1.8276
0x50,9,38,51.509,3.738,0.1904,0.1509,1.8276
0x50,9,38,51.54,3.769,0.5933,0.1104,1.1318
0x50,9,38,51.573,3.802,0.5933,0.1104,1.1318
0x50,9,38,51.575,3.804,0.7241,0.2148,0.3877
0x50,9,38,51.577,3.806,0.7241,0.2148,0.3877
0x50,9,38,51.58,3.809,0.2002,-0.1167,0.7739
0x50,9,38,51.582,3.811,0.2002,-0.1167,0.7739
0x50,9,38,51.584,3.813,-0.771,-0.021,1.5664
0x50,9,38,51.63,3.859,-0.771,-0.021,1.5664
0x50,9,38,51.631,3.86,-0.8052,-0.3379,1.1455
0x50,9,38,51.631,3.86,-0.8052,-0.3379,1.1455
0x50,9,38,51.631,3.86,-0.4385,-0.0918,0.6572
0x50,9,38,51.636,3.865,-0.4385,-0.0918,0.6572
0x50,9,38,51.638,3.867,-0.002,-0.0684,0.4521
0x50,9,38,51.657,3.886,-0.002,-0.0684,0.4521
0x50,9,38,51.66,3.889,0.0269,0.0059,1.3271
0x50,9,38,51.675,3.904,0.0269,0.0059,1.3271
0x50,9,38,51.679,3.908,0.0269,0.0059,1.3271
0x50,9,38,51.694,3.923,0.4287,0.1743,1.7651
0x50,9,38,51.7,3.929,0.4287,0.1743,1.7651
0x50,9,38,51.715,3.944,0.7539,0.1772,0.5088
0x50,9,38,51.719,3.948,0.7539,0.1772,0.5088
0x50,9,38,51.746,3.975,0.5723,0.043,0.4097
0x50,9,38,51.748,3.977,0.5723,0.043,0.4097
0x50,9,38,51.751,3.98,-0.4453,-0.019,1.2964
0x50,9,38,51.76,3.989,-0.4453,-0.019,1.2964
0x50,9,38,51.77,3.999,-0.894,-0.0752,1.6475
0x50,9,38,51.781,4.01,-0.894,-0.0752,1.6475
0x50,9,38,51.819,4.048,-0.6689,-0.2798,0.8301
0x50,9,38,51.819,4.048,-0.6689,-0.2798,0.8301
0x50,9,38,51.819,4.048,-0.0825,0.0557,0.3721
0x50,9,38,51.847,4.076,-0.0825,0.0557,0.3721
0x50,9,38,51.852,4.081,0.082,-0.0649,0.793
0x50,9,38,51.854,4.083,0.082,-0.0649,0.793
0x50,9,38,51.854,4.083,0.2236,0.1567,1.9888
0x50,9,38,51.861,4.09,0.2236,0.1567,1.9888
0x50,9,38,51.872,4.101,0.6987,0.1021,1.042
0x50,9,38,51.926,4.155,0.6987,0.1021,1.042
0x50,9,38,51.933,4.162,0.7197,0.1553,0.3525
0x50,9,38,51.936,4.165,0.7197,0.1553,0.3525
0x50,9,38,51.938,4.167,-0.0601,-0.1221,0.8374
0x50,9,38,51.94,4.169,-0.0601,-0.1221,0.8374
0x50,9,38,51.943,4.172,-0.9019,0.0244,1.6602
0x50,9,38,51.945,4.174,-0.9019,0.0244,1.6602
0x50,9,38,51.949,4.178,-0.8047,-0.4556,1.0518
0x50,9,38,51.959,4.188,-0.8047,-0.4556,1.0518
0x50,9,38,51.97,4.199,-0.3276,-0.0249,0.5542
0x50,9,38,51.98,4.209,-0.3276,-0.0249,0.5542
0x50,9,38,51.991,4.22,0.0981,-0.0708,0.4634
0x50,9,38,52.006,4.235,0.0981,-0.0708,0.4634
0x50,9,38,52.011,4.24,0.1558,0.0688,1.6211
0x50,9,38,52.019,4.248,0.1558,0.0688,1.6211
0x50,9,38,52.051,4.28,0.5903,0.1631,1.541
0x50,9,38,52.051,4.28,0.5903,0.1631,1.541
0x50,9,38,52.051,4.28,0.7446,0.2427,0.4175
0x50,9,38,52.065,4.294,0.7446,0.2427,0.4175
0x50,9,38,52.068,4.297,0.3926,-0.0264,0.5083
0x50,9,38,52.084,4.313,0.3926,-0.0264,0.5083
0x50,9,38,52.086,4.315,-0.6289,-0.0112,1.3857
0x50,9,38,52.102,4.331,-0.6289,-0.0112,1.3857
0x50,9,38,52.105,4.334,-0.9453,-0.1431,1.4883
0x50,9,38,52.12,4.349,-0.9453,-0.1431,1.4883
0x50,9,38,52.126,4.355,-0.5811,-0.2114,0.8164
0x50,9,38,52.142,4.371,-0.5811,-0.2114,0.8164
0x50,9,38,52.145,4.374,-0.0732,0.0337,0.3701
0x50,9,38,52.17,4.399,-0.0732,0.0337,0.3701
0x50,9,38,52.175,4.404,0.0654,-0.0386,0.9111
0x50,9,38,52.191,4.42,0.0654,-0.0386,0.9111
0x50,9,38,52.191,4.42,0.3438,0.126,2.0117
0x50,9,38,52.199,4.428,0.3438,0.126,2.0117
0x50,9,38,52.233,4.462,0.7031,0.1572,0.8745
0x50,9,38,52.233,4.462,0.7031,0.1572,0.8745
0x50,9,38,52.234,4.463,0.7158,0.1001,0.3086
0x50,9,38,52.237,4.466,0.7158,0.1001,0.3086
0x50,9,38,52.264,4.493,-0.1538,-0.1509,0.9478
0x50,9,38,52.302,4.531,-0.1538,-0.1509,0.9478
0x50,9,38,52.304,4.533,-0.9224,0.0391,1.7676
0x50,9,38,52.307,4.536,-0.9224,0.0391,1.7676
0x50,9,38,52.309,4.538,-0.7412,-0.501,0.9551
0x50,9,38,52.312,4.541,-0.7412,-0.501,0.9551
0x50,9,38,52.314,4.543,-0.2778,0.0361,0.479
0x50,9,38,52.317,4.546,-0.2778,0.0361,0.479
0x50,9,38,52.327,4.556,0.123,-0.0747,0.4956
0x50,9,38,52.339,4.568,0.123,-0.0747,0.4956
0x50,9,38,52.348,4.577,0.1353,0.1108,1.7148
0x50,9,38,52.356,4.585,0.1353,0.1108,1.7148
0x50,9,38,52.366,4.595,0.625,0.1318,1.438
0x50,9,38,52.376,4.605,0.625,0.1318,1.438
0x50,9,38,52.391,4.62,0.7495,0.2559,0.415
0x50,9,38,52.394,4.623,0.7495,0.2559,0.415
0x50,9,38,52.409,4.638,0.2793,-0.0635,0.54
0x50,9,38,52.415,4.644,0.2793,-0.0635,0.54
0x50,9,38,52.469,4.698,-0.7075,0.0029,1.4419
0x50,9,38,52.469,4.698,-0.7075,0.0029,1.4419
0x50,9,38,52.469,4.698,-0.9326,-0.2612,1.4131
0x50,9,38,52.489,4.718,-0.9326,-0.2612,1.4131
0x50,9,38,52.489,4.718,-0.5352,-0.1572,0.8184
0x50,9,38,52.494,4.723,-0.5352,-0.1572,0.8184
0x50,9,38,52.494,4.723,0.0005,0.0112,0.3179
0x50,9,38,52.508,4.737,0.0005,0.0112,0.3179
0x50,9,38,52.508,4.737,0.1113,-0.0117,1.0371
0x50,9,38,52.529,4.758,0.1113,-0.0117,1.0371
0x50,9,38,52.532,4.761,0.4331,0.1411,2.0127
0x50,9,38,52.536,4.765,0.4331,0.1411,2.0127
0x50,9,38,52.55,4.779,0.7129,0.1641,0.7622
0x50,9,38,52.554,4.783,0.7129,0.1641,0.7622
0x50,9,38,52.57,4.799,0.6338,0.083,0.3193
0x50,9,38,52.577,4.806,0.6338,0.083,0.3193
0x50,9,38,52.586,4.815,-0.2852,-0.1411,1.0269
0x50,9,38,52.595,4.824,-0.2852,-0.1411,1.0269
0x50,9,38,52.607,4.836,-0.9556,0.02,1.7822
0x50,9,38,52.659,4.888,-0.9556,0.02,1.7822
0x50,9,38,52.659,4.888,-0.707,-0.4404,0.9175
0x50,9,38,52.666,4.895,-0.707,-0.4404,0.9175
0x50,9,38,52.676,4.905,-0.23,0.0259,0.4341
0x50,9,38,52.678,4.907,-0.23,0.0259,0.4341
0x50,9,38,52.681,4.91,0.0879,-0.0527,0.5479
0x50,9,38,52.683,4.912,0.0879,-0.0527,0.5479
0x50,9,38,52.686,4.915,0.1846,0.0933,1.8433
0x50,9,38,52.697,4.926,0.1846,0.0933,1.8433
0x50,9,38,52.701,4.93,0.6455,0.1592,1.3364
0x50,9,38,52.717,4.946,0.6455,0.1592,1.3364
0x50,9,38,52.722,4.951,0.7637,0.2319,0.3433
0x50,9,38,52.737,4.966,0.7637,0.2319,0.3433
0x50,9,38,52.741,4.97,0.2544,-0.1113,0.583
0x50,9,38,52.756,4.985,0.2544,-0.1113,0.583
0x50,9,38,52.762,4.991,-0.7529,0.0259,1.543
0x50,9,38,52.779,5.008,-0.7529,0.0259,1.543
0x50,9,38,52.796,5.025,-0.9102,-0.3594,1.3276
0x50,9,38,52.796,5.025,-0.9102,-0.3594,1.3276
0x50,9,38,52.846,5.075,-0.5059,-0.1094,0.7759
0x50,9,38,52.847,5.076,-0.5059,-0.1094,0.7759
0x50,9,38,52.847,5.076,0.0225,0.0049,0.3232
0x50,9,38,52.847,5.076,0.0225,0.0049,0.3232
0x50,9,38,52.847,5.076,0.0859,0.0029,1.1382
0x50,9,38,52.857,5.086,0.0859,0.0029,1.1382
0x50,9,38,52.864,5.093,0.439,0.1626,1.9751
0x50,9,38,52.88,5.109,0.439,0.1626,1.9751
0x50,9,38,52.884,5.113,0.7197,0.1875,0.7183
0x50,9,38,52.894,5.123,0.7197,0.1875,0.7183
0x50,9,38,52.909,5.138,0.5718,0.0801,0.3325
0x50,9,38,52.911,5.14,0.5718,0.0801,0.3325
0x50,9,38,52.953,5.182,-0.3477,-0.1069,1.0439
0x50,9,38,52.955,5.184,-0.3477,-0.1069,1.0439
0x50,9,38,52.957,5.186,-0.9585,0.0146,1.7417
0x50,9,38,52.959,5.188,-0.9585,0.0146,1.7417
0x50,9,38,52.962,5.191,-0.6821,-0.4194,0.9468
0x50,9,38,52.977,5.206,-0.6821,-0.4194,0.9468
0x50,9,38,53.039,5.268,-0.1812,0.0259,0.3931
0x50,9,38,53.039,5.268,-0.1812,0.0259,0.3931
0x50,9,38,53.039,5.268,0.1255,-0.0596,0.5493
0x50,9,38,53.041,5.27,0.1255,-0.0596,0.5493
0x50,9,38,53.044,5.273,0.2275,0.0732,1.9048
0x50,9,38,53.051,5.28,0.2275,0.0732,1.9048
0x50,9,38,53.054,5.283,0.6563,0.1577,1.292
0x50,9,38,53.056,5.285,0.6563,0.1577,1.292
0x50,9,38,53.066,5.295,0.7388,0.2153,0.3193
0x50,9,38,53.085,5.314,0.7388,0.2153,0.3193
0x50,9,38,53.085,5.314,0.1836,-0.1343,0.6372
0x50,9,38,53.123,5.352,0.1836,-0.1343,0.6372
0x50,9,38,53.123,5.352,-0.8066,0.0366,1.5815
0x50,9,38,53.128,5.357,-0.8066,0.0366,1.5815
0x50,9,38,53.128,5.357,-0.8784,-0.3525,1.2725
0x50,9,38,53.131,5.36,-0.8784,-0.3525,1.2725
0x50,9,38,53.142,5.371,-0.4702,-0.061,0.7446
0x50,9,38,53.167,5.396,-0.4702,-0.061,0.7446
0x50,9,38,53.167,5.396,0.0181,-0.0088,0.353
0x50,9,38,53.172,5.401,0.0181,-0.0088,0.353
0x50,9,38,53.188,5.417,0.0859,0.021,1.2051
0x50,9,38,53.191,5.42,0.0859,0.021,1.2051
0x50,9,38,53.201,5.43,0.4668,0.1392,1.8848
0x50,9,38,53.216,5.445,0.4668,0.1392,1.8848
0x50,9,38,53.22,5.449,0.7217,0.2163,0.6812
0x50,9,38,53.235,5.464,0.7217,0.2163,0.6812
0x50,9,38,53.241,5.47,0.5659,0.0308,0.3511
0x50,9,38,53.275,5.504,0.5659,0.0308,0.3511
0x50,9,38,53.275,5.504,-0.374,-0.1069,1.1118
0x50,9,38,53.275,5.504,-0.374,-0.1069,1.1118
0x50,9,38,53.279,5.508,-0.9482,0.0044,1.7427
0x50,9,38,53.294,5.523,-0.9482,0.0044,1.7427
0x50,9,38,53.303,5.532,-0.6665,-0.4072,0.8965
0x50,9,38,53.313,5.542,-0.6665,-0.4072,0.8965
0x50,9,38,53.32,5.549,-0.1563,0.041,0.3867
0x50,9,38,53.336,5.565,-0.1563,0.041,0.3867
0x50,9,38,53.339,5.568,0.0986,-0.0718,0.5962
0x50,9,38,53.364,5.593,0.0986,-0.0718,0.5962
0x50,9,38,53.388,5.617,0.2241,0.0898,1.9414
0x50,9,38,53.404,5.633,0.2241,0.0898,1.9414
0x50,9,38,53.407,5.636,0.6465,0.168,1.2129
0x50,9,38,53.411,5.64,0.6465,0.168,1.2129
0x50,9,38,53.414,5.643,0.7407,0.1978,0.3218
0x50,9,38,53.416,5.645,0.7407,0.1978,0.3218
0x50,9,38,53.465,5.694,0.1572,-0.1338,0.6714
0x50,9,38,53.466,5.695,0.1572,-0.1338,0.6714
0x50,9,38,53.466,5.695,-0.8145,0.043,1.5986
0x50,9,38,53.466,5.695,-0.8145,0.043,1.5986
0x50,9,38,53.468,5.697,-0.8618,-0.3818,1.2349
0x50,9,38,53.475,5.704,-0.8618,-0.3818,1.2349
0x50,9,38,53.479,5.708,-0.4355,-0.0649,0.7222
0x50,9,38,53.494,5.723,-0.4355,-0.0649,0.7222
0x50,9,38,53.498,5.727,0.0532,-0.0083,0.3711
0x50,9,38,53.513,5.742,0.0532,-0.0083,0.3711
0x50,9,38,53.519,5.748,0.0811,0.0205,1.2695
0x50,9,38,53.532,5.761,0.0811,0.0205,1.2695
0x50,9,38,53.547,5.776,0.4849,0.1348,1.8467
0x50,9,38,53.549,5.778,0.4849,0.1348,1.8467
0x50,9,38,53.557,5.786,0.7036,0.2241,0.6133
0x50,9,38,53.575,5.804,0.7036,0.2241,0.6133
0x50,9,38,53.578,5.807,0.5337,0.0332,0.3799
0x50,9,38,53.593,5.822,0.5337,0.0332,0.3799
0x50,9,38,53.597,5.826,-0.4141,-0.1064,1.1724
0x50,9,38,53.613,5.842,-0.4141,-0.1064,1.1724
0x50,9,38,53.617,5.846,-0.9541,-0.0186,1.6836
0x50,9,38,53.645,5.874,-0.9541,-0.0186,1.6836
0x50,9,38,53.646,5.875,-0.6313,-0.3701,0.8979
0x50,9,38,53.648,5.877,-0.6313,-0.3701,0.8979
0x50,9,38,53.659,5.888,-0.6313,-0.3701,0.8979
0x50,9,38,53.669,5.898,-0.1455,0.0244,0.3745
0x50,9,38,53.679,5.908,-0.1455,0.0244,0.3745
0x50,9,38,53.69,5.919,0.0942,-0.0527,0.6626
0x50,9,38,53.7,5.929,0.0942,-0.0527,0.6626
0x50,9,38,53.735,5.964,0.2236,0.0864,1.959
0x50,9,38,53.735,5.964,0.2236,0.0864,1.959
0x50,9,38,53.813,6.042,0.6489,0.1509,1.1416
0x50,9,38,53.813,6.042,0.6489,0.1509,1.1416
0x50,9,38,53.818,6.047,0.7329,0.1924,0.3301
0x50,9,38,53.818,6.047,0.7329,0.1924,0.3301
0x50,9,38,53.82,6.049,0.1089,-0.144,0.7285
0x50,9,38,53.823,6.052,0.1089,-0.144,0.7285
0x50,9,38,53.831,6.06,-0.8198,0.0439,1.6333
0x50,9,38,53.831,6.06,-0.8198,0.0439,1.6333
0x50,9,38,53.836,6.065,-0.8135,-0.3843,1.1616
0x50,9,38,53.838,6.067,-0.8135,-0.3843,1.1616
0x50,9,38,53.844,6.073,-0.396,-0.0674,0.6914
0x50,9,38,53.847,6.076,-0.396,-0.0674,0.6914
0x50,9,38,53.884,6.113,0.0361,-0.0117,0.4165
0x50,9,38,53.884,6.113,0.0361,-0.0117,0.4165
0x50,9,38,53.884,6.113,0.0581,0.021,1.3164
0x50,9,38,53.884,6.113,0.0581,0.021,1.3164
0x50,9,38,53.888,6.117,0.4746,0.1484,1.7637
0x50,9,38,53.898,6.127,0.4746,0.1484,1.7637
0x50,9,38,53.908,6.137,0.7085,0.229,0.5991
0x50,9,38,53.92,6.149,0.7085,0.229,0.5991
0x50,9,38,53.926,6.155,0.5181,-0.0015,0.4189
0x50,9,38,53.936,6.165,0.5181,-0.0015,0.4189
0x50,9,38,53.951,6.18,-0.4541,-0.0498,1.189
0x50,9,38,53.955,6.184,-0.4541,-0.0498,1.189
0x50,9,38,53.97,6.199,-0.9292,-0.0112,1.6748
0x50,9,38,53.976,6.205,-0.9292,-0.0112,1.6748
0x50,9,38,53.991,6.22,-0.6084,-0.3472,0.8833
0x50,9,38,53.994,6.223,-0.6084,-0.3472,0.8833
0x50,9,38,54.01,6.239,-0.124,0.04,0.3696
0x50,9,38,54.014,6.243,-0.124,0.04,0.3696
0x50,9,38,54.029,6.258,0.0762,-0.0903,0.7246
0x50,9,38,54.035,6.264,0.0762,-0.0903,0.7246
0x50,9,38,54.07,6.299,0.2417,0.1113,1.9678
0x50,9,38,54.07,6.299,0.2417,0.1113,1.9678
0x50,9,38,54.07,6.299,0.6626,0.1274,1.0649
0x50,9,38,54.099,6.328,0.6626,0.1274,1.0649
0x50,9,38,54.124,6.353,0.7314,0.1665,0.3516
0x50,9,38,54.14,6.369,0.7314,0.1665,0.3516
0x50,9,38,54.143,6.372,0.0527,-0.1519,0.7832
0x50,9,38,54.145,6.374,0.0527,-0.1519,0.7832
0x50,9,38,54.15,6.379,-0.834,0.0444,1.6304
0x50,9,38,54.153,6.382,-0.834,0.0444,1.6304
0x50,9,38,54.156,6.385,-0.8115,-0.3921,1.0879
0x50,9,38,54.158,6.387,-0.8115,-0.3921,1.0879
0x50,9,38,54.173,6.402,-0.3682,-0.0527,0.6602
0x50,9,38,54.18,6.409,-0.3682,-0.0527,0.6602
0x50,9,38,54.183,6.412,0.0518,-0.0034,0.4404
0x50,9,38,54.198,6.427,0.0518,-0.0034,0.4404
0x50,9,38,54.205,6.434,0.0806,0.0347,1.4053
0x50,9,38,54.257,6.486,0.0806,0.0347,1.4053
0x50,9,38,54.257,6.486,0.5195,0.1514,1.6982
0x50,9,38,54.257,6.486,0.5195,0.1514,1.6982
0x50,9,38,54.257,6.486,0.71,0.2334,0.5488
0x50,9,38,54.257,6.486,0.71,0.2334,0.5488
0x50,9,38,54.27,6.499,0.4849,-0.0342,0.4404
0x50,9,38,54.274,6.503,0.4849,-0.0342,0.4404
0x50,9,38,54.288,6.517,-0.4995,-0.0635,1.2397
0x50,9,38,54.295,6.524,-0.4995,-0.0635,1.2397
0x50,9,38,54.306,6.535,-0.9316,-0.0718,1.6147
0x50,9,38,54.316,6.545,-0.9316,-0.0718,1.6147
0x50,9,38,54.323,6.552,-0.5801,-0.3271,0.8921
0x50,9,38,54.339,6.568,-0.5801,-0.3271,0.8921
0x50,9,38,54.355,6.584,-0.1074,0.0322,0.353
0x50,9,38,54.355,6.584,-0.1074,0.0322,0.353
0x50,9,38,54.386,6.615,0.0742,-0.0669,0.7632
0x50,9,38,54.387,6.616,0.0742,-0.0669,0.7632
0x50,9,38,54.41,6.639,0.2554,0.1104,2.0005
0x50,9,38,54.415,6.644,0.2554,0.1104,2.0005
0x50,9,38,54.415,6.644,0.6338,0.1665,1.0205
0x50,9,38,54.415,6.644,0.6338,0.1665,1.0205
0x50,9,38,54.436,6.665,0.7324,0.1699,0.3477
0x50,9,38,54.438,6.667,0.7324,0.1699,0.3477
0x50,9,38,54.494,6.723,0.0229,-0.1245,0.8379
0x50,9,38,54.494,6.723,0.0229,-0.1245,0.8379
0x50,9,38,54.506,6.735,-0.8599,0.0977,1.6328
0x50,9,38,54.509,6.738,-0.8599,0.0977,1.6328
0x50,9,38,54.511,6.74,-0.7871,-0.4468,1.0522
0x50,9,38,54.514,6.743,-0.7871,-0.4468,1.0522
0x50,9,38,54.517,6.746,-0.3809,-0.0303,0.6421
0x50,9,38,54.519,6.748,-0.3809,-0.0303,0.6421
0x50,9,38,54.527,6.756,0.0352,-0.1064,0.4561
0x50,9,38,54.533,6.762,0.0352,-0.1064,0.4561
0x50,9,38,54.548,6.777,0.144,0.082,1.4634
0x50,9,38,54.55,6.779,0.144,0.082,1.4634
0x50,9,38,54.564,6.793,0.6001,0.0903,1.5464
0x50,9,38,54.574,6.803,0.6001,0.0903,1.5464
0x50,9,38,54.584,6.813,0.7524,0.2456,0.6216
0x50,9,38,54.597,6.826,0.7524,0.2456,0.6216
0x50,9,38,54.601,6.83,0.3965,-0.0391,0.4478
0x50,9,38,54.617,6.846,0.3965,-0.0391,0.4478
0x50,9,38,54.622,6.851,-0.5894,-0.0449,1.2402
0x50,9,38,54.68,6.909,-0.5894,-0.0449,1.2402
0x50,9,38,54.681,6.91,-1.0078,-0.1938,1.5483
0x50,9,38,54.681,6.91,-1.0078,-0.1938,1.5483
0x50,9,38,54.681,6.91,-0.6226,-0.2749,0.9668
0x50,9,38,54.681,6.91,-0.6226,-0.2749,0.9668
0x50,9,38,54.686,6.915,-0.0493,0.0186,0.3188
0x50,9,38,54.69,6.919,-0.0493,0.0186,0.3188
0x50,9,38,54.705,6.934,0.1426,-0.0229,0.7949
0x50,9,38,54.726,6.955,0.1426,-0.0229,0.7949
0x50,9,38,54.729,6.958,0.3833,0.1514,2.0122
0x50,9,38,54.745,6.974,0.3833,0.1514,2.0122
0x50,9,38,54.748,6.977,0.6909,0.146,0.9883
0x50,9,38,54.754,6.983,0.6909,0.146,0.9883
0x50,9,38,54.765,6.994,0.6543,0.1309,0.3018
0x50,9,38,54.776,7.005,0.6543,0.1309,0.3018
0x50,9,38,54.783,7.012,-0.1157,-0.1875,0.8306
0x50,9,38,54.797,7.026,-0.1157,-0.1875,0.8306
0x50,9,38,54.8,7.029,-0.9648,0.0127,1.6919
0x50,9,38,54.831,7.06,-0.9648,0.0127,1.6919
0x50,9,38,54.865,7.094,-0.7788,-0.4849,1.0464
0x50,9,38,54.88,7.109,-0.7788,-0.4849,1.0464
0x50,9,38,54.885,7.114,-0.3096,-0.0576,0.5532
0x50,9,38,54.887,7.116,-0.3096,-0.0576,0.5532
0x50,9,38,54.889,7.118,0.1377,-0.0679,0.4849
0x50,9,38,54.892,7.121,0.1377,-0.0679,0.4849
0x50,9,38,54.894,7.123,0.23,0.0825,1.6152
0x50,9,38,54.9,7.129,0.23,0.0825,1.6152
0x50,9,38,54.902,7.131,0.645,0.1289,1.5039
0x50,9,38,54.913,7.142,0.645,0.1289,1.5039
0x50,9,38,54.924,7.153,0.6846,0.231,0.5083
0x50,9,38,54.93,7.159,0.6846,0.231,0.5083
0x50,9,38,54.945,7.174,0.3188,-0.0684,0.4883
0x50,9,38,54.949,7.178,0.3188,-0.0684,0.4883
0x50,9,38,54.965,7.194,-0.6377,0.0269,1.3564
0x50,9,38,54.969,7.198,-0.6377,0.0269,1.3564
0x50,9,38,54.991,7.22,-0.959,-0.1348,1.5132
0x50,9,38,54.992,7.221,-0.959,-0.1348,1.5132
0x50,9,38,55.009,7.238,-0.606,-0.1309,0.9292
0x50,9,38,55.034,7.263,-0.606,-0.1309,0.9292
0x50,9,38,55.047,7.276,-0.1401,0.1963,0.3696
0x50,9,38,55.047,7.276,-0.1401,0.1963,0.3696
0x50,9,38,55.051,7.28,0.0981,0.0742,0.8667
0x50,9,38,55.052,7.281,0.0981,0.0742,0.8667
0x50,9,38,55.109,7.338,0.2998,0.2246,1.9043
0x50,9,38,55.109,7.338,0.2998,0.2246,1.9043
0x50,9,38,55.109,7.338,0.7461,0.1855,1.0796
0x50,9,38,55.109,7.338,0.7461,0.1855,1.0796
0x50,9,38,55.109,7.338,0.6265,0.1021,0.3003
0x50,9,38,55.112,7.341,0.6265,0.1021,0.3003
0x50,9,38,55.122,7.351,-0.1035,-0.1797,0.8208
0x50,9,38,55.129,7.358,-0.1035,-0.1797,0.8208
0x50,9,38,55.144,7.373,-0.9438,-0.0996,1.6396
0x50,9,38,55.148,7.377,-0.9438,-0.0996,1.6396
0x50,9,38,55.163,7.392,-0.7832,-0.5815,1.1157
0x50,9,38,55.167,7.396,-0.7832,-0.5815,1.1157
0x50,9,38,55.182,7.411,-0.2915,-0.0264,0.5513
0x50,9,38,55.207,7.436,-0.2915,-0.0264,0.5513
0x50,9,38,55.232,7.461,0.2388,-0.1279,0.3901
0x50,9,38,55.242,7.471,0.2388,-0.1279,0.3901
0x50,9,38,55.245,7.474,0.207,0.0796,1.6035
0x50,9,38,55.247,7.476,0.207,0.0796,1.6035
0x50,9,38,55.25,7.479,0.6387,0.1626,1.6187
0x50,9,38,55.252,7.481,0.6387,0.1626,1.6187
0x50,9,38,55.26,7.489,0.6255,0.2241,0.521
0x50,9,38,55.298,7.527,0.6255,0.2241,0.521
0x50,9,38,55.298,7.527,0.187,0.0659,0.4585
0x50,9,38,55.298,7.527,0.187,0.0659,0.4585
0x50,9,38,55.298,7.527,-0.6934,0.0093,1.2773
0x50,9,38,55.307,7.536,-0.6934,0.0093,1.2773
0x50,9,38,55.322,7.551,-1.0117,-0.064,1.5259
0x50,9,38,55.329,7.558,-1.0117,-0.064,1.5259
0x50,9,38,55.339,7.568,-0.5337,-0.1475,0.9575
0x50,9,38,55.36,7.589,-0.5337,-0.1475,0.9575
0x50,9,38,55.36,7.589,-0.0547,0.1152,0.3584
0x50,9,38,55.381,7.61,-0.0547,0.1152,0.3584
0x50,9,38,55.384,7.613,0.2056,0.0039,0.8403
0x50,9,38,55.391,7.62,0.2056,0.0039,0.8403
0x50,9,38,55.4,7.629,0.4756,0.1235,2.0029
0x50,9,38,55.411,7.64,0.4756,0.1235,2.0029
0x50,9,38,55.421,7.65,0.6641,0.1431,0.9863
0x50,9,38,55.43,7.659,0.6641,0.1431,0.9863
0x50,9,38,55.44,7.669,0.6382,0.041,0.2671
0x50,9,38,55.45,7.679,0.6382,0.041,0.2671
0x50,9,38,55.484,7.713,-0.103,-0.2236,0.834
0x50,9,38,55.484,7.713,-0.103,-0.2236,0.834
0x50,9,38,55.484,7.713,-1.0146,-0.0435,1.7334
0x50,9,38,55.489,7.718,-1.0146,-0.0435,1.7334
0x50,9,38,55.5,7.729,-0.7383,-0.5225,1.105
0x50,9,38,55.509,7.738,-0.7383,-0.5225,1.105
0x50,9,38,55.517,7.746,-0.3613,0.0259,0.4834
0x50,9,38,55.532,7.761,-0.3613,0.0259,0.4834
0x50,9,38,55.536,7.765,0.0942,-0.0308,0.4458
0x50,9,38,55.551,7.78,0.0942,-0.0308,0.4458
0x50,9,38,55.576,7.805,0.1382,0.1006,1.5898
0x50,9,38,55.601,7.83,0.1382,0.1006,1.5898
0x50,9,38,55.609,7.838,0.6187,0.2363,1.625
0x50,9,38,55.611,7.84,0.6187,0.2363,1.625
0x50,9,38,55.613,7.842,0.6899,0.2744,0.5063
0x50,9,38,55.616,7.845,0.6899,0.2744,0.5063
0x50,9,38,55.626,7.855,0.272,0.0664,0.4287
0x50,9,38,55.626,7.855,0.272,0.0664,0.4287
0x50,9,38,55.646,7.875,-0.5732,0.02,1.3008
0x50,9,38,55.681,7.91,-0.5732,0.02,1.3008
0x50,9,38,55.724,7.953,-0.5732,0.02,1.3008
0x50,9,38,55.724,7.953,-1.0327,-0.1494,1.5254
0x50,9,38,55.724,7.953,-1.0327,-0.1494,1.5254
0x50,9,38,55.724,7.953,-0.5625,-0.2402,1.0015
0x50,9,38,55.724,7.953,-0.5625,-0.2402,1.0015
0x50,9,38,55.724,7.953,-0.0107,0.0713,0.292
0x50,9,38,55.724,7.953,-0.0107,0.0713,0.292
0x50,9,38,55.729,7.958,0.2334,-0.0767,0.7451
0x50,9,38,55.74,7.969,0.2334,-0.0767,0.7451
0x50,9,38,55.746,7.975,0.4282,0.1465,2.106
0x50,9,38,55.761,7.99,0.4282,0.1465,2.106
0x50,9,38,55.764,7.993,0.6758,0.0811,1.0361
0x50,9,38,55.782,8.011,0.6758,0.0811,1.0361
0x50,9,38,55.784,8.013,0.5591,0.0806,0.2471
0x50,9,38,55.799,8.028,0.5591,0.0806,0.2471
0x50,9,38,55.806,8.035,-0.1602,-0.1685,0.7744
0x50,9,38,55.822,8.051,-0.1602,-0.1685,0.7744
0x50,9,38,55.825,8.054,-1.0127,0.0015,1.6992
0x50,9,38,55.837,8.066,-1.0127,0.0015,1.6992
0x50,9,38,55.847,8.076,-0.7676,-0.4302,1.1206
0x50,9,38,55.859,8.088,-0.7676,-0.4302,1.1206
0x50,9,38,55.865,8.094,-0.3149,0.0205,0.5303
0x50,9,38,55.914,8.143,-0.3149,0.0205,0.5303
0x50,9,38,55.914,8.143,0.1338,0.0122,0.4126
0x50,9,38,55.914,8.143,0.1338,0.0122,0.4126
0x50,9,38,55.914,8.143,0.2744,0.0889,1.5898
0x50,9,38,55.919,8.148,0.2744,0.0889,1.5898
0x50,9,38,55.944,8.173,0.6138,0.2188,1.6118
0x50,9,38,55.97,8.199,0.6138,0.2188,1.6118
0x50,9,38,55.979,8.208,0.627,0.2534,0.4937
0x50,9,38,55.982,8.211,0.627,0.2534,0.4937
0x50,9,38,55.987,8.216,0.3428,-0.0156,0.4629
0x50,9,38,55.989,8.218,0.3428,-0.0156,0.4629
0x50,9,38,55.994,8.223,-0.562,-0.0581,1.2544
0x50,9,38,56.009,8.238,-0.562,-0.0581,1.2544
0x50,9,38,56.013,8.242,-1.0093,-0.1362,1.6011
0x50,9,38,56.021,8.25,-1.0093,-0.1362,1.6011
0x50,9,38,56.024,8.253,-0.5737,-0.3057,1.0029
0x50,9,38,56.038,8.267,-0.5737,-0.3057,1.0029
0x50,9,38,56.044,8.273,-0.127,0.085,0.314
0x50,9,38,56.06,8.289,-0.127,0.085,0.314
0x50,9,38,56.063,8.292,0.1733,-0.0747,0.7036
0x50,9,38,56.101,8.33,0.1733,-0.0747,0.7036
0x50,9,38,56.101,8.33,0.3325,0.1475,2.0625
0x50,9,38,56.101,8.33,0.3325,0.1475,2.0625
0x50,9,38,56.105,8.334,0.7075,0.1191,1.0869
0x50,9,38,56.115,8.344,0.7075,0.1191,1.0869
0x50,9,38,56.128,8.357,0.6089,0.1538,0.2969
0x50,9,38,56.134,8.363,0.6089,0.1538,0.2969
0x50,9,38,56.146,8.375,-0.0537,-0.1157,0.7466
0x50,9,38,56.154,8.383,-0.0537,-0.1157,0.7466
0x50,9,38,56.173,8.402,-0.9292,0.0376,1.645
0x50,9,38,56.175,8.404,-0.9292,0.0376,1.645
0x50,9,38,56.185,8.414,-0.8066,-0.4419,1.1436
0x50,9,38,56.195,8.424,-0.8066,-0.4419,1.1436
0x50,9,38,56.207,8.436,-0.3296,0.0029,0.6245
0x50,9,38,56.213,8.442,-0.3296,0.0029,0.6245
0x50,9,38,56.227,8.456,0.1851,0.0122,0.3672
0x50,9,38,56.23,8.459,0.1851,0.0122,0.3672
0x50,9,38,56.249,8.478,0.2397,0.0835,1.415
0x50,9,38,56.286,8.515,0.2397,0.0835,1.415
0x50,9,38,56.287,8.516,0.605,0.2007,1.7031
0x50,9,38,56.309,8.538,0.605,0.2007,1.7031
0x50,9,38,56.309,8.538,0.6265,0.2036,0.6187
0x50,9,38,56.359,8.588,0.6265,0.2036,0.6187
0x50,9,38,56.359,8.588,0.3291,-0.0132,0.3999
0x50,9,38,56.384,8.613,0.3291,-0.0132,0.3999
0x50,9,38,56.384,8.613,-0.5801,-0.0464,1.1553
0x50,9,38,56.389,8.618,-0.5801,-0.0464,1.1553
0x50,9,38,56.389,8.618,-1.0269,-0.1426,1.6528
0x50,9,38,56.394,8.623,-1.0269,-0.1426,1.6528
0x50,9,38,56.396,8.625,-0.6055,-0.2842,1.0107
0x50,9,38,56.399,8.628,-0.6055,-0.2842,1.0107
0x50,9,38,56.401,8.63,-0.1128,0.0229,0.3472
0x50,9,38,56.404,8.633,-0.1128,0.0229,0.3472
0x50,9,38,56.406,8.635,0.2231,-0.0342,0.709
0x50,9,38,56.416,8.645,0.2231,-0.0342,0.709
0x50,9,38,56.422,8.651,0.3984,0.1348,2.019
0x50,9,38,56.438,8.667,0.3984,0.1348,2.019
0x50,9,38,56.441,8.67,0.6821,0.1475,1.0605
0x50,9,38,56.454,8.683,0.6821,0.1475,1.0605
0x50,9,38,56.464,8.693,0.6157,0.1514,0.3066
0x50,9,38,56.475,8.704,0.6157,0.1514,0.3066
0x50,9,38,56.481,8.71,-0.002,-0.1455,0.7539
0x50,9,38,56.524,8.753,-0.002,-0.1455,0.7539
0x50,9,38,56.524,8.753,-0.9312,0.0625,1.6226
0x50,9,38,56.524,8.753,-0.9312,0.0625,1.6226
0x50,9,38,56.524,8.753,-0.8071,-0.4287,1.1167
0x50,9,38,56.535,8.764,-0.8071,-0.4287,1.1167
0x50,9,38,56.538,8.767,-0.3794,0.0195,0.6719
0x50,9,38,56.555,8.784,-0.3794,0.0195,0.6719
0x50,9,38,56.574,8.803,0.1357,0.019,0.3965
0x50,9,38,56.574,8.803,0.1357,0.019,0.3965
0x50,9,38,56.58,8.809,0.1792,0.0547,1.2744
0x50,9,38,56.597,8.826,0.1792,0.0547,1.2744
0x50,9,38,56.599,8.828,0.5454,0.2251,1.7964
0x50,9,38,56.614,8.843,0.5454,0.2251,1.7964
0x50,9,38,56.634,8.863,0.6841,0.1533,0.6943
0x50,9,38,56.638,8.867,0.6841,0.1533,0.6943
0x50,9,38,56.652,8.881,0.3726,0.0308,0.3403
0x50,9,38,56.709,8.938,0.3726,0.0308,0.3403
0x50,9,38,56.709,8.938,-0.5073,-0.0498,1.1069
0x50,9,38,56.712,8.941,-0.5073,-0.0498,1.1069
0x50,9,38,56.715,8.944,-1.0229,-0.1719,1.7026
0x50,9,38,56.717,8.946,-1.0229,-0.1719,1.7026
0x50,9,38,56.72,8.949,-0.646,-0.29,1.0249
0x50,9,38,56.725,8.954,-0.646,-0.29,1.0249
0x50,9,38,56.73,8.959,-0.0806,0.0513,0.3438
0x50,9,38,56.732,8.961,-0.0806,0.0513,0.3438
0x50,9,38,56.744,8.973,0.2715,-0.0303,0.6416
0x50,9,38,56.753,8.982,0.2715,-0.0303,0.6416
0x50,9,38,56.761,8.99,0.3281,0.1284,1.9829
0x50,9,38,56.771,9,0.3281,0.1284,1.9829
0x50,9,38,56.783,9.012,0.6909,0.1294,1.1577
0x50,9,38,56.79,9.019,0.6909,0.1294,1.1577
0x50,9,38,56.805,9.034,0.5869,0.1685,0.3433
0x50,9,38,56.809,9.038,0.5869,0.1685,0.3433
0x50,9,38,56.825,9.054,0.0146,-0.1338,0.6929
0x50,9,38,56.827,9.056,0.0146,-0.1338,0.6929
0x50,9,38,56.852,9.081,-0.9155,0.0415,1.5264
0x50,9,38,56.855,9.084,-0.9155,0.0415,1.5264
0x50,9,38,56.857,9.086,-0.8447,-0.3657,1.1997
0x50,9,38,56.893,9.122,-0.8447,-0.3657,1.1997
0x50,9,38,56.893,9.122,-0.3701,-0.0361,0.7437
0x50,9,38,56.905,9.134,-0.3701,-0.0361,0.7437
0x50,9,38,56.905,9.134,0.0977,0.0479,0.3423
0x50,9,38,56.922,9.151,0.0977,0.0479,0.3423
0x50,9,38,56.926,9.155,0.1948,0.0283,1.2266
0x50,9,38,56.964,9.193,0.1948,0.0283,1.2266
0x50,9,38,56.966,9.195,0.5366,0.208,1.8857
0x50,9,38,56.969,9.198,0.5366,0.208,1.8857
0x50,9,38,56.969,9.198,0.6724,0.1606,0.6924
0x50,9,38,56.977,9.206,0.6724,0.1606,0.6924
0x50,9,38,56.977,9.206,0.4468,0.0371,0.3467
0x50,9,38,56.991,9.22,0.4468,0.0371,0.3467
0x50,9,38,57.001,9.23,-0.4355,-0.0718,1.0977
0x50,9,38,57.013,9.242,-0.4355,-0.0718,1.0977
0x50,9,38,57.02,9.249,-1.0044,-0.1133,1.7017
0x50,9,38,57.046,9.275,-1.0044,-0.1133,1.7017
0x50,9,38,57.072,9.301,-0.6533,-0.3462,1.0059
0x50,9,38,57.079,9.308,-0.6533,-0.3462,1.0059
0x50,9,38,57.081,9.31,-0.1523,0.0425,0.3916
0x50,9,38,57.084,9.313,-0.1523,0.0425,0.3916
0x50,9,38,57.089,9.318,0.2158,-0.0361,0.604
0x50,9,38,57.091,9.32,0.2158,-0.0361,0.604
0x50,9,38,57.127,9.356,0.2305,0.1177,1.8618
0x50,9,38,57.127,9.356,0.2305,0.1177,1.8618
0x50,9,38,57.127,9.356,0.6973,0.1709,1.2749
0x50,9,38,57.13,9.359,0.6973,0.1709,1.2749
0x50,9,38,57.137,9.366,0.6528,0.187,0.3618
0x50,9,38,57.152,9.381,0.6528,0.187,0.3618
0x50,9,38,57.156,9.385,0.0903,-0.0684,0.623
0x50,9,38,57.175,9.404,0.0903,-0.0684,0.623
0x50,9,38,57.177,9.406,-0.832,0.0278,1.5059
0x50,9,38,57.193,9.422,-0.832,0.0278,1.5059
0x50,9,38,57.211,9.44,-0.8745,-0.3965,1.2549
0x50,9,38,57.211,9.44,-0.8745,-0.3965,1.2549
0x50,9,38,57.215,9.444,-0.437,-0.0483,0.7881
0x50,9,38,57.23,9.459,-0.437,-0.0483,0.7881
0x50,9,38,57.236,9.465,0.1162,0.021,0.3662
0x50,9,38,57.253,9.482,0.1162,0.021,0.3662
0x50,9,38,57.27,9.499,0.1836,0.0151,1.0933
0x50,9,38,57.274,9.503,0.1836,0.0151,1.0933
0x50,9,38,57.316,9.545,0.4829,0.1851,1.9355
0x50,9,38,57.316,9.545,0.4829,0.1851,1.9355
0x50,9,38,57.317,9.546,0.6792,0.1211,0.8071
0x50,9,38,57.317,9.546,0.6792,0.1211,0.8071
0x50,9,38,57.321,9.55,0.4771,0.0493,0.3271
0x50,9,38,57.327,9.556,0.4771,0.0493,0.3271
0x50,9,38,57.342,9.571,-0.3701,-0.085,0.998
0x50,9,38,57.346,9.575,-0.3701,-0.085,0.998
0x50,9,38,57.361,9.59,-0.9961,-0.0737,1.7422
0x50,9,38,57.369,9.598,-0.9961,-0.0737,1.7422
0x50,9,38,57.38,9.609,-0.6753,-0.3711,1.0234
0x50,9,38,57.386,9.615,-0.6753,-0.3711,1.0234
0x50,9,38,57.411,9.64,-0.1875,0.0317,0.4268
0x50,9,38,57.436,9.665,-0.1875,0.0317,0.4268
0x50,9,38,57.449,9.678,0.2134,-0.0186,0.5366
0x50,9,38,57.451,9.68,0.2134,-0.0186,0.5366
0x50,9,38,57.454,9.683,0.2402,0.103,1.7915
0x50,9,38,57.459,9.688,0.2402,0.103,1.7915
0x50,9,38,57.462,9.691,0.6641,0.1865,1.3413
0x50,9,38,57.516,9.745,0.6641,0.1865,1.3413
0x50,9,38,57.516,9.745,0.6567,0.1919,0.3799
0x50,9,38,57.516,9.745,0.6567,0.1919,0.3799
0x50,9,38,57.516,9.745,0.1812,-0.0781,0.5718
0x50,9,38,57.516,9.745,0.1812,-0.0781,0.5718
0x50,9,38,57.53,9.759,-0.7788,0.0327,1.4326
0x50,9,38,57.533,9.762,-0.7788,0.0327,1.4326
0x50,9,38,57.535,9.764,-0.895,-0.3262,1.3662
0x50,9,38,57.555,9.784,-0.895,-0.3262,1.3662
0x50,9,38,57.571,9.8,-0.4795,-0.1084,0.8335
0x50,9,38,57.596,9.825,-0.4795,-0.1084,0.8335
0x50,9,38,57.608,9.837,0.0068,0.0327,0.3286
0x50,9,38,57.611,9.84,0.0068,0.0327,0.3286
0x50,9,38,57.611,9.84,0.1665,-0.0024,1.0405
0x50,9,38,57.616,9.845,0.1665,-0.0024,1.0405
0x50,9,38,57.616,9.845,0.4307,0.1948,1.9946
0x50,9,38,57.629,9.858,0.4307,0.1948,1.9946
0x50,9,38,57.637,9.866,0.7031,0.1377,0.8516
0x50,9,38,57.647,9.876,0.7031,0.1377,0.8516
0x50,9,38,57.657,9.886,0.5049,0.0942,0.2949
0x50,9,38,57.667,9.896,0.5049,0.0942,0.2949
0x50,9,38,57.676,9.905,-0.2837,-0.1035,0.9707
0x50,9,38,57.686,9.915,-0.2837,-0.1035,0.9707
0x50,9,38,57.701,9.93,-0.2837,-0.1035,0.9707
0x50,9,38,57.705,9.934,-1.0112,-0.0273,1.7192
0x50,9,38,57.758,9.987,-1.0112,-0.0273,1.7192
0x50,9,38,57.759,9.988,-0.7124,-0.3892,1.0669
0x50,9,38,57.759,9.988,-0.7124,-0.3892,1.0669
0x50,9,38,57.759,9.988,-0.2373,0.0103,0.4546
0x50,9,38,57.771,10,-0.2373,0.0103,0.4546
0x50,9,38,57.796,10.025,0.186,-0.0176,0.4824
0x50,9,38,57.819,10.048,0.186,-0.0176,0.4824
0x50,9,38,57.824,10.053,0.2397,0.0923,1.7388
0x50,9,38,57.826,10.055,0.2397,0.0923,1.7388
0x50,9,38,57.829,10.058,0.6621,0.2046,1.4316
0x50,9,38,57.831,10.06,0.6621,0.2046,1.4316
0x50,9,38,57.834,10.063,0.6602,0.209,0.4028
0x50,9,38,57.836,10.065,0.6602,0.209,0.4028
0x50,9,38,57.844,10.073,0.2241,-0.0605,0.5088
0x50,9,38,57.854,10.083,0.2241,-0.0605,0.5088
0x50,9,38,57.864,10.093,-0.7173,0.0151,1.3652
0x50,9,38,57.875,10.104,-0.7173,0.0151,1.3652
0x50,9,38,57.888,10.117,-0.959,-0.2651,1.4482
0x50,9,38,57.907,10.136,-0.959,-0.2651,1.4482
0x50,9,38,57.951,10.18,-0.5044,-0.1699,0.8833
0x50,9,38,57.951,10.18,-0.5044,-0.1699,0.8833
0x50,9,38,57.951,10.18,-0.0117,0.064,0.3169
0x50,9,38,57.951,10.18,-0.0117,0.064,0.3169
0x50,9,38,57.951,10.18,0.1978,-0.0381,0.9302
0x50,9,38,57.954,10.183,0.1978,-0.0381,0.9302
0x50,9,38,57.969,10.198,0.4238,0.1655,2.0752
0x50,9,38,57.977,10.206,0.4238,0.1655,2.0752
0x50,9,38,57.983,10.212,0.6914,0.1245,0.9268
0x50,9,38,57.995,10.224,0.6914,0.1245,0.9268
0x50,9,38,58.003,10.232,0.5376,0.0977,0.2861
0x50,9,38,58.021,10.25,0.5376,0.0977,0.2861
0x50,9,38,58.023,10.252,-0.21,-0.1333,0.8999
0x50,9,38,58.039,10.268,-0.21,-0.1333,0.8999
0x50,9,38,58.042,10.271,-1.0229,0.022,1.73
0x50,9,38,58.057,10.286,-1.0229,0.022,1.73
0x50,9,38,58.061,10.29,-0.731,-0.4355,1.0703
0x50,9,38,58.076,10.305,-0.731,-0.4355,1.0703
0x50,9,38,58.082,10.311,-0.2778,0.0469,0.5078
0x50,9,38,58.097,10.326,-0.2778,0.0469,0.5078
0x50,9,38,58.102,10.331,0.1875,0.0132,0.4414
0x50,9,38,58.133,10.362,0.1875,0.0132,0.4414
0x50,9,38,58.134,10.363,0.2383,0.0742,1.5913
0x50,9,38,58.16,10.389,0.2383,0.0742,1.5913
0x50,9,38,58.181,10.41,0.6367,0.2202,1.5459
0x50,9,38,58.184,10.413,0.6367,0.2202,1.5459
0x50,9,38,58.186,10.415,0.6641,0.209,0.4814
0x50,9,38,58.189,10.418,0.6641,0.209,0.4814
0x50,9,38,58.194,10.423,0.2817,-0.0493,0.4336
0x50,9,38,58.205,10.434,0.2817,-0.0493,0.4336
0x50,9,38,58.209,10.438,-0.645,-0.0195,1.2773
0x50,9,38,58.244,10.473,-0.645,-0.0195,1.2773
0x50,9,38,58.246,10.475,-0.9971,-0.2456,1.5552
0x50,9,38,58.246,10.475,-0.9971,-0.2456,1.5552
0x50,9,38,58.251,10.48,-0.5508,-0.2241,0.9658
0x50,9,38,58.254,10.483,-0.5508,-0.2241,0.9658
0x50,9,38,58.27,10.499,-0.043,0.0654,0.3086
0x50,9,38,58.273,10.502,-0.043,0.0654,0.3086
0x50,9,38,58.318,10.547,0.2217,-0.0483,0.812
0x50,9,38,58.318,10.547,0.2217,-0.0483,0.812
0x50,9,38,58.318,10.547,0.3735,0.1631,2.0923
0x50,9,38,58.318,10.547,0.3735,0.1631,2.0923
0x50,9,38,58.327,10.556,0.6943,0.1279,1.022
0x50,9,38,58.33,10.559,0.6943,0.1279,1.022
0x50,9,38,58.345,10.574,0.5479,0.1406,0.2866
0x50,9,38,58.351,10.58,0.5479,0.1406,0.2866
0x50,9,38,58.367,10.596,-0.1289,-0.1216,0.8242
0x50,9,38,58.37,10.599,-0.1289,-0.1216,0.8242
0x50,9,38,58.385,10.614,-0.9941,0.0469,1.6655
0x50,9,38,58.389,10.618,-0.9941,0.0469,1.6655
0x50,9,38,58.404,10.633,-0.77,-0.4199,1.1099
0x50,9,38,58.41,10.639,-0.77,-0.4199,1.1099
0x50,9,38,58.422,10.651,-0.3062,0.0259,0.5918
0x50,9,38,58.429,10.658,-0.3062,0.0259,0.5918
0x50,9,38,58.445,10.674,0.1743,0.02,0.3823
0x50,9,38,58.448,10.677,0.1743,0.02,0.3823
0x50,9,38,58.463,10.692,0.2422,0.0469,1.4399
0x50,9,38,58.483,10.712,0.2422,0.0469,1.4399
0x50,9,38,58.483,10.712,0.6016,0.2207,1.6914
0x50,9,38,58.488,10.717,0.6016,0.2207,1.6914
0x50,9,38,58.519,10.748,0.6592,0.1772,0.5693
0x50,9,38,58.56,10.789,0.6592,0.1772,0.5693
0x50,9,38,58.561,10.79,0.3447,-0.0352,0.3765
0x50,9,38,58.561,10.79,0.3447,-0.0352,0.3765
0x50,9,38,58.561,10.79,-0.5791,-0.0269,1.1758
0x50,9,38,58.564,10.793,-0.5791,-0.0269,1.1758
0x50,9,38,58.566,10.795,-1.019,-0.1958,1.6514
0x50,9,38,58.57,10.799,-1.019,-0.1958,1.6514
0x50,9,38,58.585,10.814,-0.5942,-0.2769,0.9966
0x50,9,38,58.589,10.818,-0.5942,-0.2769,0.9966
0x50,9,38,58.605,10.834,-0.1006,0.0752,0.3267
0x50,9,38,58.609,10.838,-0.1006,0.0752,0.3267
0x50,9,38,58.625,10.854,0.2461,-0.0503,0.7231
0x50,9,38,58.629,10.858,0.2461,-0.0503,0.7231
0x50,9,38,58.645,10.874,0.3345,0.1401,2.0278
0x50,9,38,58.649,10.878,0.3345,0.1401,2.0278
0x50,9,38,58.664,10.893,0.6943,0.1519,1.1084
0x50,9,38,58.668,10.897,0.6943,0.1519,1.1084
0x50,9,38,58.684,10.913,0.5781,0.1611,0.2988
0x50,9,38,58.688,10.917,0.5781,0.1611,0.2988
0x50,9,38,58.703,10.932,-0.0146,-0.1226,0.752
0x50,9,38,58.711,10.94,-0.0146,-0.1226,0.752
0x50,9,38,58.751,10.98,-0.9502,0.0508,1.5952
0x50,9,38,58.751,10.98,-0.9502,0.0508,1.5952
0x50,9,38,58.751,10.98,-0.8193,-0.417,1.1655
0x50,9,38,58.751,10.98,-0.8193,-0.417,1.1655
0x50,9,38,58.758,10.987,-0.3545,-0.0039,0.6934
0x50,9,38,58.769,10.998,-0.3545,-0.0039,0.6934
0x50,9,38,58.779,11.008,0.1323,0.0498,0.3486
0x50,9,38,58.789,11.018,0.1323,0.0498,0.3486
0x50,9,38,58.8,11.029,0.2397,0.0181,1.293
0x50,9,38,58.81,11.039,0.2397,0.0181,1.293
0x50,9,38,58.827,11.056,0.5483,0.2129,1.8267
0x50,9,38,58.839,11.068,0.5483,0.2129,1.8267
0x50,9,38,58.849,11.078,0.6548,0.1641,0.6753
0x50,9,38,58.874,11.103,0.6548,0.1641,0.6753
0x50,9,38,58.899,11.128,0.3872,-0.0112,0.3325
0x50,9,38,58.937,11.166,0.3872,-0.0112,0.3325
0x50,9,38,58.945,11.174,-0.4854,-0.0562,1.1055
0x50,9,38,58.945,11.174,-0.4854,-0.0562,1.1055
0x50,9,38,58.949,11.178,-1.0322,-0.1353,1.6948
0x50,9,38,58.952,11.181,-1.0322,-0.1353,1.6948
0x50,9,38,58.954,11.183,-0.6216,-0.3423,1.0195
0x50,9,38,58.957,11.186,-0.6216,-0.3423,1.0195
0x50,9,38,58.959,11.188,-0.1382,0.0742,0.3716
0x50,9,38,58.962,11.191,-0.1382,0.0742,0.3716
0x50,9,38,58.965,11.194,0.248,-0.0366,0.6235
0x50,9,38,58.967,11.196,0.248,-0.0366,0.6235
0x50,9,38,58.982,11.211,0.2915,0.1357,1.9365
0x50,9,38,58.986,11.215,0.2915,0.1357,1.9365
0x50,9,38,59.001,11.23,0.6689,0.1753,1.2109
0x50,9,38,59.007,11.236,0.6689,0.1753,1.2109
0x50,9,38,59.022,11.251,0.5898,0.2075,0.3481
0x50,9,38,59.025,11.254,0.5898,0.2075,0.3481
0x50,9,38,59.044,11.273,0.0732,-0.0942,0.6641
0x50,9,38,59.046,11.275,0.0732,-0.0942,0.6641
0x50,9,38,59.062,11.291,-0.8647,0.0459,1.5059
0x50,9,38,59.065,11.294,-0.8647,0.0459,1.5059
0x50,9,38,59.08,11.309,-0.8535,-0.3701,1.2544
0x50,9,38,59.086,11.315,-0.8535,-0.3701,1.2544
0x50,9,38,59.101,11.33,-0.4043,-0.061,0.7925
0x50,9,38,59.12,11.349,-0.4043,-0.061,0.7925
0x50,9,38,59.12,11.349,0.1021,0.0449,0.354
0x50,9,38,59.182,11.411,0.1021,0.0449,0.354
0x50,9,38,59.182,11.411,0.2271,-0.0283,1.0908
0x50,9,38,59.182,11.411,0.2271,-0.0283,1.0908
0x50,9,38,59.182,11.411,0.4849,0.1724,1.9424
0x50,9,38,59.182,11.411,0.4849,0.1724,1.9424
0x50,9,38,59.182,11.411,0.6611,0.1089,0.7988
0x50,9,38,59.196,11.425,0.6611,0.1089,0.7988
0x50,9,38,59.2,11.429,0.4629,0.019,0.2959
0x50,9,38,59.208,11.437,0.4629,0.019,0.2959
0x50,9,38,59.219,11.448,-0.3794,-0.0972,1.0117
0x50,9,38,59.246,11.475,-0.3794,-0.0972,1.0117
0x50,9,38,59.271,11.5,-1.001,-0.0801,1.7798
0x50,9,38,59.289,11.518,-1.001,-0.0801,1.7798
0x50,9,38,59.291,11.52,-0.6509,-0.3779,1.0122
0x50,9,38,59.293,11.522,-0.6509,-0.3779,1.0122
0x50,9,38,59.296,11.525,-0.1821,0.0815,0.4033
0x50,9,38,59.298,11.527,-0.1821,0.0815,0.4033
0x50,9,38,59.301,11.53,0.2222,-0.0205,0.5352
0x50,9,38,59.305,11.534,0.2222,-0.0205,0.5352
0x50,9,38,59.32,11.549,0.229,0.106,1.8022
0x50,9,38,59.324,11.553,0.229,0.106,1.8022
0x50,9,38,59.368,11.597,0.627,0.1992,1.3413
0x50,9,38,59.369,11.598,0.627,0.1992,1.3413
0x50,9,38,59.369,11.598,0.6362,0.2158,0.4019
0x50,9,38,59.369,11.598,0.6362,0.2158,0.4019
0x50,9,38,59.38,11.609,0.2085,-0.0942,0.5459
0x50,9,38,59.384,11.613,0.2085,-0.0942,0.5459
0x50,9,38,59.398,11.627,-0.7505,0.0405,1.418
0x50,9,38,59.402,11.631,-0.7505,0.0405,1.418
0x50,9,38,59.419,11.648,-0.8843,-0.313,1.4023
0x50,9,38,59.423,11.652,-0.8843,-0.313,1.4023
0x50,9,38,59.438,11.667,-0.4673,-0.1494,0.8818
0x50,9,38,59.445,11.674,-0.4673,-0.1494,0.8818
0x50,9,38,59.467,11.696,0.022,0.0547,0.3145
0x50,9,38,59.467,11.696,0.022,0.0547,0.3145
0x50,9,38,59.488,11.717,0.2017,-0.0371,0.9951
0x50,9,38,59.491,11.72,0.2017,-0.0371,0.9951
0x50,9,38,59.516,11.745,0.4268,0.1963,2.0356
0x50,9,38,59.558,11.787,0.4268,0.1963,2.0356
0x50,9,38,59.559,11.788,0.6416,0.1548,0.876
0x50,9,38,59.559,11.788,0.6416,0.1548,0.876
0x50,9,38,59.559,11.788,0.5249,0.1021,0.3032
0x50,9,38,59.559,11.788,0.5249,0.1021,0.3032
0x50,9,38,59.559,11.788,-0.2437,-0.0801,0.9619
0x50,9,38,59.57,11.799,-0.2437,-0.0801,0.9619
0x50,9,38,59.574,11.803,-1.0107,0.0034,1.6094
0x50,9,38,59.588,11.817,-1.0107,0.0034,1.6094
0x50,9,38,59.592,11.821,-0.7114,-0.416,1.1016
0x50,9,38,59.647,11.876,-0.7114,-0.416,1.1016
0x50,9,38,59.65,11.879,-0.2642,-0.0229,0.4878
0x50,9,38,59.652,11.881,-0.2642,-0.0229,0.4878
0x50,9,38,59.654,11.883,0.1699,-0.0698,0.4517
0x50,9,38,59.657,11.886,0.1699,-0.0698,0.4517
0x50,9,38,59.659,11.888,0.2632,0.021,1.6357
0x50,9,38,59.662,11.891,0.2632,0.021,1.6357
0x50,9,38,59.674,11.903,0.6045,0.1543,1.5103
0x50,9,38,59.683,11.912,0.6045,0.1543,1.5103
0x50,9,38,59.693,11.922,0.6045,0.1543,1.5103
0x50,9,38,59.703,11.932,0.6816,0.1616,0.5161
0x50,9,38,59.735,11.964,0.6816,0.1616,0.5161
0x50,9,38,59.735,11.964,0.311,-0.1191,0.4121
0x50,9,38,59.735,11.964,0.311,-0.1191,0.4121
0x50,9,38,59.752,11.981,-0.6641,-0.0356,1.3062
0x50,9,38,59.752,11.981,-0.6641,-0.0356,1.3062
0x50,9,38,59.769,11.998,-1.0039,-0.2642,1.5254
0x50,9,38,59.771,12,-1.0039,-0.2642,1.5254
0x50,9,38,59.784,12.013,-0.5796,-0.2598,0.9604
0x50,9,38,59.794,12.023,-0.5796,-0.2598,0.9604
0x50,9,38,59.813,12.042,-0.0996,0.0654,0.2856
0x50,9,38,59.813,12.042,-0.0996,0.0654,0.2856
0x50,9,38,59.837,12.066,0.1382,-0.0767,0.8096
0x50,9,38,59.84,12.069,0.1382,-0.0767,0.8096
0x50,9,38,59.842,12.071,0.377,0.1675,2.1221
0x50,9,38,59.858,12.087,0.377,0.1675,2.1221
0x50,9,38,59.861,12.09,0.7393,0.1563,1.021
0x50,9,38,59.88,12.109,0.7393,0.1563,1.021
0x50,9,38,59.883,12.112,0.5674,0.2114,0.293
0x50,9,38,59.898,12.127,0.5674,0.2114,0.293
0x50,9,38,59.901,12.13,-0.0854,-0.0605,0.811
0x50,9,38,59.918,12.147,-0.0854,-0.0605,0.811
0x50,9,38,59.921,12.15,-0.9766,0.0601,1.6064
0x50,9,38,59.976,12.205,-0.9766,0.0601,1.6064
0x50,9,38,59.977,12.206,-0.8418,-0.4253,1.1309
0x50,9,38,59.977,12.206,-0.8418,-0.4253,1.1309
0x50,9,38,59.977,12.206,-0.2905,0.043,0.7271
0x50,9,38,59.986,12.215,-0.2905,0.043,0.7271
0x50,9,39,0.011,12.24,0.2749,0.0298,0.3467
0x50,9,39,0.024,12.253,0.2749,0.0298,0.3467
0x50,9,39,0.026,12.255,0.2969,0.0249,1.3208
0x50,9,39,0.028,12.257,0.2969,0.0249,1.3208
0x50,9,39,0.031,12.26,0.6255,0.1489,1.792
0x50,9,39,0.034,12.263,0.6255,0.1489,1.792
0x50,9,39,0.042,12.271,0.5864,0.1021,0.6685
0x50,9,39,0.052,12.281,0.5864,0.1021,0.6685
0x50,9,39,0.063,12.292,0.3066,-0.0615,0.3267
0x50,9,39,0.071,12.3,0.3066,-0.0615,0.3267
0x50,9,39,0.081,12.31,-0.6191,-0.1113,1.041
0x50,9,39,0.102,12.331,-0.6191,-0.1113,1.041
0x50,9,39,0.113,12.342,-1.0767,-0.1792,1.7095
0x50,9,39,0.12,12.349,-1.0767,-0.1792,1.7095
0x50,9,39,0.169,12.398,-0.5884,-0.2959,1.0342
0x50,9,39,0.169,12.398,-0.5884,-0.2959,1.0342
0x50,9,39,0.169,12.398,-0.0933,0.1021,0.3428
0x50,9,39,0.171,12.4,-0.0933,0.1021,0.3428
0x50,9,39,0.171,12.4,0.292,0.019,0.6768
0x50,9,39,0.174,12.403,0.292,0.019,0.6768
0x50,9,39,0.181,12.41,0.4009,0.1782,1.9785
0x50,9,39,0.194,12.423,0.4009,0.1782,1.9785
0x50,9,39,0.2,12.429,0.6611,0.2319,1.1509
0x50,9,39,0.211,12.44,0.6611,0.2319,1.1509
0x50,9,39,0.222,12.451,0.5483,0.2144,0.3018
0x50,9,39,0.232,12.461,0.5483,0.2144,0.3018
0x50,9,39,0.24,12.469,0.104,-0.1406,0.7085
0x50,9,39,0.255,12.484,0.104,-0.1406,0.7085
0x50,9,39,0.258,12.487,-0.9136,0.0171,1.4712
0x50,9,39,0.274,12.503,-0.9136,0.0171,1.4712
0x50,9,39,0.277,12.506,-0.8687,-0.4224,1.2983
0x50,9,39,0.292,12.521,-0.8687,-0.4224,1.2983
0x50,9,39,0.299,12.528,-0.4019,-0.1025,0.8008
0x50,9,39,0.314,12.543,-0.4019,-0.1025,0.8008
0x50,9,39,0.317,12.546,0.0728,0.0068,0.2144
0x50,9,39,0.36,12.589,0.0728,0.0068,0.2144
0x50,9,39,0.369,12.598,0.2251,-0.0537,1.1577
0x50,9,39,0.384,12.613,0.2251,-0.0537,1.1577
0x50,9,39,0.386,12.615,0.499,0.1899,2.0542
0x50,9,39,0.389,12.618,0.499,0.1899,2.0542
0x50,9,39,0.394,12.623,0.6938,0.0972,0.7275
0x50,9,39,0.394,12.623,0.6938,0.0972,0.7275
0x50,9,39,0.41,12.639,0.4316,0.0557,0.209
0x50,9,39,0.41,12.639,0.4316,0.0557,0.209
0x50,9,39,0.429,12.658,-0.3965,-0.1128,1.0557
0x50,9,39,0.429,12.658,-0.3965,-0.1128,1.0557
0x50,9,39,0.439,12.668,-1.0664,-0.0967,1.7861
0x50,9,39,0.454,12.683,-1.0664,-0.0967,1.7861
0x50,9,39,0.473,12.702,-0.6895,-0.353,1.019
0x50,9,39,0.473,12.702,-0.6895,-0.353,1.019
0x50,9,39,0.48,12.709,-0.1362,0.0859,0.3696
0x50,9,39,0.49,12.719,-0.1362,0.0859,0.3696
0x50,9,39,0.503,12.732,0.2832,0.002,0.5327
0x50,9,39,0.509,12.738,0.2832,0.002,0.5327
0x50,9,39,0.524,12.753,0.3457,0.123,1.8638
0x50,9,39,0.528,12.757,0.3457,0.123,1.8638
0x50,9,39,0.544,12.773,0.6875,0.189,1.3789
0x50,9,39,0.548,12.777,0.6875,0.189,1.3789
0x50,9,39,0.563,12.792,0.5659,0.1792,0.3774
0x50,9,39,0.601,12.83,0.5659,0.1792,0.3774
0x50,9,39,0.602,12.831,0.0991,-0.1094,0.5381
0x50,9,39,0.602,12.831,0.0991,-0.1094,0.5381
0x50,9,39,0.602,12.831,-0.8901,0.0039,1.3311
0x50,9,39,0.608,12.837,-0.8901,0.0039,1.3311
0x50,9,39,0.623,12.852,-1.0181,-0.2739,1.4824
0x50,9,39,0.625,12.854,-1.0181,-0.2739,1.4824
0x50,9,39,0.641,12.87,-0.4951,-0.1099,0.8838
0x50,9,39,0.644,12.873,-0.4951,-0.1099,0.8838
0x50,9,39,0.661,12.89,-0.0352,0.1333,0.2563
0x50,9,39,0.664,12.893,-0.0352,0.1333,0.2563
0x50,9,39,0.679,12.908,0.2974,0.0234,1.0273
0x50,9,39,0.686,12.915,0.2974,0.0234,1.0273
0x50,9,39,0.716,12.945,0.5229,0.2129,2.0435
0x50,9,39,0.741,12.97,0.5229,0.2129,2.0435
0x50,9,39,0.754,12.983,0.7065,0.186,0.8608
0x50,9,39,0.796,13.025,0.7065,0.186,0.8608
0x50,9,39,0.796,13.025,0.4976,0.0874,0.2607
0x50,9,39,0.796,13.025,0.4976,0.0874,0.2607
0x50,9,39,0.796,13.025,-0.2075,-0.189,0.9326
0x50,9,39,0.804,13.033,-0.2075,-0.189,0.9326
0x50,9,39,0.806,13.035,-1.0815,-0.1064,1.6782
0x50,9,39,0.808,13.037,-1.0815,-0.1064,1.6782
0x50,9,39,0.809,13.038,-0.7612,-0.458,1.1548
0x50,9,39,0.816,13.045,-0.7612,-0.458,1.1548
0x50,9,39,0.819,13.048,-0.2583,0.0054,0.4648
0x50,9,39,0.828,13.057,-0.2583,0.0054,0.4648
0x50,9,39,0.838,13.067,0.2617,-0.0356,0.3306
0x50,9,39,0.85,13.079,0.2617,-0.0356,0.3306
0x50,9,39,0.856,13.085,0.271,0.0806,1.6484
0x50,9,39,0.871,13.1,0.271,0.0806,1.6484
0x50,9,39,0.875,13.104,0.6919,0.1689,1.6904
0x50,9,39,0.892,13.121,0.6919,0.1689,1.6904
0x50,9,39,0.895,13.124,0.6001,0.1934,0.4639
0x50,9,39,0.91,13.139,0.6001,0.1934,0.4639
0x50,9,39,0.916,13.145,0.1582,0.0371,0.3643
0x50,9,39,0.933,13.162,0.1582,0.0371,0.3643
0x50,9,39,0.935,13.164,-0.7124,-0.0386,1.2437
0x50,9,39,0.98,13.209,-0.7124,-0.0386,1.2437
0x50,9,39,0.98,13.209,-1.0947,-0.2554,1.625
0x50,9,39,0.98,13.209,-1.0947,-0.2554,1.625
0x50,9,39,0.98,13.209,-0.5596,-0.1294,0.9858
0x50,9,39,0.989,13.218,-0.5596,-0.1294,0.9858
0x50,9,39,0.995,13.224,0.0635,0.0933,0.271
0x50,9,39,1.011,13.24,0.0635,0.0933,0.271
0x50,9,39,1.013,13.242,0.4014,0.0249,0.7969
0x50,9,39,1.026,13.255,0.4014,0.0249,0.7969
0x50,9,39,1.047,13.276,0.5088,0.1714,2.0762
0x50,9,39,1.047,13.276,0.5088,0.1714,2.0762
0x50,9,39,1.053,13.282,0.6411,0.1279,1.0493
0x50,9,39,1.079,13.308,0.6411,0.1279,1.0493
0x50,9,39,1.105,13.334,0.4458,0.1064,0.2549
0x50,9,39,1.125,13.354,0.4458,0.1064,0.2549
0x50,9,39,1.13,13.359,-0.1362,-0.2046,0.7593
0x50,9,39,1.163,13.392,-0.1362,-0.2046,0.7593
0x50,9,39,1.164,13.393,-1.084,-0.0552,1.5737
0x50,9,39,1.164,13.393,-1.084,-0.0552,1.5737
0x50,9,39,1.164,13.393,-0.8135,-0.4238,1.2437
0x50,9,39,1.164,13.393,-0.8135,-0.4238,1.2437
0x50,9,39,1.164,13.393,-0.3213,-0.0249,0.6323
0x50,9,39,1.164,13.393,-0.3213,-0.0249,0.6323
0x50,9,39,1.182,13.411,0.188,0.0322,0.2861
0x50,9,39,1.185,13.414,0.188,0.0322,0.2861
0x50,9,39,1.201,13.43,0.3306,0.043,1.4146
0x50,9,39,1.203,13.432,0.3306,0.043,1.4146
0x50,9,39,1.221,13.45,0.6094,0.2168,1.8535
0x50,9,39,1.224,13.453,0.6094,0.2168,1.8535
0x50,9,39,1.24,13.469,0.5879,0.1992,0.5664
0x50,9,39,1.242,13.471,0.5879,0.1992,0.5664
0x50,9,39,1.255,13.484,0.3184,0.0459,0.3418
0x50,9,39,1.27,13.499,0.3184,0.0459,0.3418
0x50,9,39,1.274,13.503,-0.4888,-0.0801,1.1792
0x50,9,39,1.283,13.512,-0.4888,-0.0801,1.1792
0x50,9,39,1.294,13.523,-1.0889,-0.1211,1.6675
0x50,9,39,1.304,13.533,-1.0889,-0.1211,1.6675
0x50,9,39,1.316,13.545,-0.626,-0.2793,1.0693
0x50,9,39,1.323,13.552,-0.626,-0.2793,1.0693
0x50,9,39,1.338,13.567,-0.1196,0.0898,0.3174
0x50,9,39,1.341,13.57,-0.1196,0.0898,0.3174
0x50,9,39,1.358,13.587,0.2925,-0.0264,0.5698
0x50,9,39,1.404,13.633,0.2925,-0.0264,0.5698
0x50,9,39,1.404,13.633,0.3638,0.1045,1.9932
0x50,9,39,1.404,13.633,0.3638,0.1045,1.9932
0x50,9,39,1.404,13.633,0.6987,0.103,1.2622
0x50,9,39,1.432,13.661,0.6987,0.103,1.2622
0x50,9,39,1.456,13.685,0.5605,0.1606,0.2729
0x50,9,39,1.481,13.71,0.5605,0.1606,0.2729
0x50,9,39,1.481,13.71,0.0273,-0.1265,0.6235
0x50,9,39,1.506,13.735,0.0273,-0.1265,0.6235
0x50,9,39,1.508,13.737,-0.9312,-0.0469,1.4756
0x50,9,39,1.513,13.742,-0.9312,-0.0469,1.4756
0x50,9,39,1.516,13.745,-0.9312,-0.3818,1.3442
0x50,9,39,1.518,13.747,-0.9312,-0.3818,1.3442
0x50,9,39,1.521,13.75,-0.4023,-0.0308,0.7651
0x50,9,39,1.524,13.753,-0.4023,-0.0308,0.7651
0x50,9,39,1.526,13.755,0.1611,0.0283,0.2944
0x50,9,39,1.528,13.757,0.1611,0.0283,0.2944
0x50,9,39,1.537,13.766,0.3174,0.0522,1.1831
0x50,9,39,1.541,13.77,0.3174,0.0522,1.1831
0x50,9,39,1.552,13.781,0.5635,0.2056,1.9819
0x50,9,39,1.596,13.825,0.5635,0.2056,1.9819
0x50,9,39,1.596,13.825,0.6035,0.1577,0.7539
0x50,9,39,1.596,13.825,0.6035,0.1577,0.7539
0x50,9,39,1.596,13.825,0.3809,0.083,0.2798
0x50,9,39,1.605,13.834,0.3809,0.083,0.2798
0x50,9,39,1.611,13.84,-0.3745,-0.1201,1.0229
0x50,9,39,1.639,13.868,-0.3745,-0.1201,1.0229
0x50,9,39,1.642,13.871,-1.1157,-0.0688,1.6831
0x50,9,39,1.644,13.873,-1.1157,-0.0688,1.6831
0x50,9,39,1.662,13.891,-0.6948,-0.3613,1.0801
0x50,9,39,1.662,13.891,-0.6948,-0.3613,1.0801
0x50,9,39,1.682,13.911,-0.1934,0.0454,0.4482
0x50,9,39,1.682,13.911,-0.1934,0.0454,0.4482
0x50,9,39,1.703,13.932,0.2998,-0.0186,0.4668
0x50,9,39,1.703,13.932,0.2998,-0.0186,0.4668
0x50,9,39,1.709,13.938,0.2998,-0.0186,0.4668
0x50,9,39,1.725,13.954,0.3682,0.0806,1.7876
0x50,9,39,1.746,13.975,0.3682,0.0806,1.7876
0x50,9,39,1.785,14.014,0.6675,0.1694,1.4111
0x50,9,39,1.788,14.017,0.6675,0.1694,1.4111
0x50,9,39,1.788,14.017,0.585,0.1519,0.3784
0x50,9,39,1.788,14.017,0.585,0.1519,0.3784
0x50,9,39,1.788,14.017,0.165,-0.1045,0.5146
0x50,9,39,1.821,14.05,0.165,-0.1045,0.5146
0x50,9,39,1.855,14.084,-0.7915,-0.0542,1.3672
0x50,9,39,1.862,14.091,-0.7915,-0.0542,1.3672
0x50,9,39,1.864,14.093,-0.978,-0.3389,1.4741
0x50,9,39,1.866,14.095,-0.978,-0.3389,1.4741
0x50,9,39,1.869,14.098,-0.5015,-0.1084,0.9009
0x50,9,39,1.871,14.1,-0.5015,-0.1084,0.9009
0x50,9,39,1.874,14.103,0.0527,0.0547,0.2437
0x50,9,39,1.879,14.108,0.0527,0.0547,0.2437
0x50,9,39,1.882,14.111,0.272,0.0273,0.9619
0x50,9,39,1.897,14.126,0.272,0.0273,0.9619
0x50,9,39,1.899,14.128,0.4717,0.1987,2.0957
0x50,9,39,1.914,14.143,0.4717,0.1987,2.0957
0x50,9,39,1.918,14.147,0.6733,0.1382,0.9224
0x50,9,39,1.934,14.163,0.6733,0.1382,0.9224
0x50,9,39,1.976,14.205,0.4341,0.1592,0.2344
0x50,9,39,1.976,14.205,0.4341,0.1592,0.2344
0x50,9,39,1.976,14.205,-0.2437,-0.1167,0.9282
0x50,9,39,1.976,14.205,-0.2437,-0.1167,0.9282
0x50,9,39,1.979,14.208,-1.0913,-0.0425,1.647
0x50,9,39,1.994,14.223,-1.0913,-0.0425,1.647
0x50,9,39,2.014,14.243,-0.7759,-0.3779,1.1372
0x50,9,39,2.016,14.245,-0.7759,-0.3779,1.1372
0x50,9,39,2.031,14.26,-0.2451,0.0337,0.5449
0x50,9,39,2.038,14.267,-0.2451,0.0337,0.5449
0x50,9,39,2.052,14.281,0.2759,0.0132,0.3892
0x50,9,39,2.09,14.319,0.2759,0.0132,0.3892
0x50,9,39,2.093,14.322,0.3667,0.061,1.5942
0x50,9,39,2.093,14.322,0.3667,0.061,1.5942
0x50,9,39,2.097,14.326,0.6611,0.1904,1.6226
0x50,9,39,2.099,14.328,0.6611,0.1904,1.6226
0x50,9,39,2.102,14.331,0.5781,0.1509,0.478
0x50,9,39,2.109,14.338,0.5781,0.1509,0.478
0x50,9,39,2.126,14.355,0.2183,-0.0566,0.4009
0x50,9,39,2.128,14.357,0.2183,-0.0566,0.4009
0x50,9,39,2.144,14.373,-0.6958,-0.0908,1.2183
0x50,9,39,2.147,14.376,-0.6958,-0.0908,1.2183
0x50,9,39,2.164,14.393,-1.0474,-0.248,1.6201
0x50,9,39,2.213,14.442,-1.0474,-0.248,1.6201
0x50,9,39,2.216,14.445,-0.5474,-0.2002,1.0059
0x50,9,39,2.229,14.458,-0.5474,-0.2002,1.0059
0x50,9,39,2.231,14.46,-0.0347,0.0659,0.2554
0x50,9,39,2.234,14.463,-0.0347,0.0659,0.2554
0x50,9,39,2.236,14.465,0.2944,0.0078,0.7886
0x50,9,39,2.239,14.468,0.2944,0.0078,0.7886
0x50,9,39,2.242,14.471,0.4355,0.1719,2.0859
0x50,9,39,2.25,14.479,0.4355,0.1719,2.0859
0x50,9,39,2.265,14.494,0.6699,0.1606,1.0317
0x50,9,39,2.268,14.497,0.6699,0.1606,1.0317
0x50,9,39,2.282,14.511,0.5015,0.1851,0.2476
0x50,9,39,2.299,14.528,0.5015,0.1851,0.2476
0x50,9,39,2.299,14.528,-0.0952,-0.124,0.8384
0x50,9,39,2.322,14.551,-0.0952,-0.124,0.8384
0x50,9,39,2.323,14.552,-1.0195,-0.0073,1.5933
0x50,9,39,2.34,14.569,-1.0195,-0.0073,1.5933
0x50,9,39,2.34,14.569,-0.8276,-0.3965,1.1782
0x50,9,39,2.347,14.576,-0.8276,-0.3965,1.1782
0x50,9,39,2.362,14.591,-0.3291,0.0049,0.6489
0x50,9,39,2.402,14.631,-0.3291,0.0049,0.6489
0x50,9,39,2.402,14.631,0.209,0.0015,0.3281
0x50,9,39,2.402,14.631,0.209,0.0015,0.3281
0x50,9,39,2.402,14.631,0.3047,0.0313,1.3877
0x50,9,39,2.408,14.637,0.3047,0.0313,1.3877
0x50,9,39,2.419,14.648,0.6074,0.1899,1.8237
0x50,9,39,2.429,14.658,0.6074,0.1899,1.8237
0x50,9,39,2.439,14.668,0.6196,0.1216,0.5957
0x50,9,39,2.449,14.678,0.6196,0.1216,0.5957
0x50,9,39,2.464,14.693,0.3086,0.0063,0.3105
0x50,9,39,2.466,14.695,0.3086,0.0063,0.3105
0x50,9,39,2.48,14.709,-0.5542,-0.103,1.1489
0x50,9,39,2.487,14.716,-0.5542,-0.103,1.1489
0x50,9,39,2.498,14.727,-1.084,-0.1831,1.6929
0x50,9,39,2.514,14.743,-1.084,-0.1831,1.6929
0x50,9,39,2.516,14.745,-0.6279,-0.2544,1.0195
0x50,9,39,2.531,14.76,-0.6279,-0.2544,1.0195
0x50,9,39,2.589,14.818,-0.0991,0.0571,0.3101
0x50,9,39,2.589,14.818,-0.0991,0.0571,0.3101
0x50,9,39,2.596,14.825,0.3022,0.0239,0.6787
0x50,9,39,2.598,14.827,0.3022,0.0239,0.6787
0x50,9,39,2.601,14.83,0.394,0.1548,1.9893
0x50,9,39,2.603,14.832,0.394,0.1548,1.9893
0x50,9,39,2.606,14.835,0.6904,0.1729,1.1582
0x50,9,39,2.609,14.838,0.6904,0.1729,1.1582
0x50,9,39,2.616,14.845,0.5366,0.1919,0.2939
0x50,9,39,2.627,14.856,0.5366,0.1919,0.2939
0x50,9,39,2.65,14.879,0.0161,-0.1182,0.7158
0x50,9,39,2.652,14.881,0.0161,-0.1182,0.7158
0x50,9,39,2.669,14.898,-0.9507,-0.0229,1.4937
0x50,9,39,2.672,14.901,-0.9507,-0.0229,1.4937
0x50,9,39,2.688,14.917,-0.9077,-0.3813,1.2754
0x50,9,39,2.712,14.941,-0.9077,-0.3813,1.2754
0x50,9,39,2.731,14.96,-0.397,-0.0547,0.7612
0x50,9,39,2.731,14.96,-0.397,-0.0547,0.7612
0x50,9,39,2.736,14.965,0.1431,0.0244,0.2783
0x50,9,39,2.739,14.968,0.1431,0.0244,0.2783
0x50,9,39,2.741,14.97,0.3027,0.0073,1.2153
0x50,9,39,2.754,14.983,0.3027,0.0073,1.2153
0x50,9,39,2.757,14.986,0.5688,0.2046,1.9766
0x50,9,39,2.767,14.996,0.5688,0.2046,1.9766
0x50,9,39,2.777,15.006,0.6387,0.1147,0.6914
0x50,9,39,2.785,15.014,0.6387,0.1147,0.6914
0x50,9,39,2.825,15.054,0.3677,0.0679,0.2676
0x50,9,39,2.826,15.055,0.3677,0.0679,0.2676
0x50,9,39,2.826,15.055,-0.4312,-0.1221,1.0786
0x50,9,39,2.826,15.055,-0.4312,-0.1221,1.0786
0x50,9,39,2.849,15.078,-1.1001,-0.1089,1.7056
0x50,9,39,2.851,15.08,-1.1001,-0.1089,1.7056
0x50,9,39,2.854,15.083,-0.6802,-0.314,1.0537
0x50,9,39,2.87,15.099,-0.6802,-0.314,1.0537
0x50,9,39,2.874,15.103,-0.1455,0.061,0.3857
0x50,9,39,2.889,15.118,-0.1455,0.061,0.3857
0x50,9,39,2.893,15.122,0.3037,0.0063,0.5435
0x50,9,39,2.954,15.183,0.3037,0.0063,0.5435
0x50,9,39,2.957,15.186,0.3696,0.1206,1.8765
0x50,9,39,2.961,15.19,0.3696,0.1206,1.8765
0x50,9,39,2.961,15.19,0.6802,0.1655,1.3218
0x50,9,39,2.966,15.195,0.6802,0.1655,1.3218
0x50,9,39,2.966,15.195,0.5552,0.1831,0.3423
0x50,9,39,2.969,15.198,0.5552,0.1831,0.3423
0x50,9,39,2.973,15.202,0.0972,-0.0947,0.5908
0x50,9,39,3.016,15.245,0.0972,-0.0947,0.5908
0x50,9,39,3.016,15.245,-0.8647,-0.0508,1.4014
0x50,9,39,3.016,15.245,-0.8647,-0.0508,1.4014
0x50,9,39,3.018,15.247,-0.9653,-0.3276,1.4106
0x50,9,39,3.028,15.257,-0.9653,-0.3276,1.4106
0x50,9,39,3.034,15.263,-0.457,-0.0981,0.8467
0x50,9,39,3.049,15.278,-0.457,-0.0981,0.8467
0x50,9,39,3.052,15.281,0.0845,0.0454,0.2637
0x50,9,39,3.067,15.296,0.0845,0.0454,0.2637
0x50,9,39,3.073,15.302,0.3018,-0.0005,1.0601
0x50,9,39,3.089,15.318,0.3018,-0.0005,1.0601
0x50,9,39,3.092,15.321,0.5171,0.1938,2.0591
0x50,9,39,3.107,15.336,0.5171,0.1938,2.0591
0x50,9,39,3.111,15.34,0.6455,0.1255,0.8037
0x50,9,39,3.13,15.359,0.6455,0.1255,0.8037
0x50,9,39,3.132,15.361,0.4316,0.0942,0.252
0x50,9,39,3.147,15.376,0.4316,0.0942,0.252
0x50,9,39,3.151,15.38,-0.2979,-0.1313,1.0054
0x50,9,39,3.167,15.396,-0.2979,-0.1313,1.0054
0x50,9,39,3.215,15.444,-1.0928,-0.0469,1.6787
0x50,9,39,3.215,15.444,-1.0928,-0.0469,1.6787
0x50,9,39,3.215,15.444,-0.7295,-0.3677,1.0762
0x50,9,39,3.215,15.444,-0.7295,-0.3677,1.0762
0x50,9,39,3.215,15.444,-0.2285,0.0615,0.4834
0x50,9,39,3.222,15.451,-0.2285,0.0615,0.4834
0x50,9,39,3.232,15.461,0.2822,0.0015,0.4526
0x50,9,39,3.244,15.473,0.2822,0.0015,0.4526
0x50,9,39,3.251,15.48,0.3364,0.0918,1.6968
0x50,9,39,3.284,15.513,0.3364,0.0918,1.6968
0x50,9,39,3.329,15.558,0.6602,0.1958,1.5161
0x50,9,39,3.331,15.56,0.6602,0.1958,1.5161
0x50,9,39,3.357,15.586,0.5796,0.1743,0.4287
0x50,9,39,3.367,15.596,0.5796,0.1743,0.4287
0x50,9,39,3.401,15.63,0.1841,-0.0542,0.4683
0x50,9,39,3.401,15.63,0.1841,-0.0542,0.4683
0x50,9,39,3.401,15.63,-0.7461,-0.0684,1.3042
0x50,9,39,3.401,15.63,-0.7461,-0.0684,1.3042
0x50,9,39,3.401,15.63,-1.0264,-0.29,1.5366
0x50,9,39,3.401,15.63,-1.0264,-0.29,1.5366
0x50,9,39,3.401,15.63,-0.5298,-0.1543,0.936
0x50,9,39,3.401,15.63,-0.5298,-0.1543,0.936
0x50,9,39,3.401,15.63,0.0288,0.0498,0.2578
0x50,9,39,3.407,15.636,0.0288,0.0498,0.2578
0x50,9,39,3.411,15.64,0.3164,-0.0068,0.8887
0x50,9,39,3.423,15.652,0.3164,-0.0068,0.8887
0x50,9,39,3.435,15.664,0.4648,0.1851,2.1011
0x50,9,39,3.441,15.67,0.4648,0.1851,2.1011
0x50,9,39,3.456,15.685,0.6646,0.1147,0.9346
0x50,9,39,3.459,15.688,0.6646,0.1147,0.9346
0x50,9,39,3.476,15.705,0.4673,0.1484,0.2441
0x50,9,39,3.478,15.707,0.4673,0.1484,0.2441
0x50,9,39,3.493,15.722,-0.1748,-0.1411,0.896
0x50,9,39,3.5,15.729,-0.1748,-0.1411,0.896
0x50,9,39,3.516,15.745,-1.0659,-0.0249,1.6255
0x50,9,39,3.521,15.75,-1.0659,-0.0249,1.6255
0x50,9,39,3.531,15.76,-0.8037,-0.3828,1.1226
0x50,9,39,3.546,15.775,-0.8037,-0.3828,1.1226
0x50,9,39,3.548,15.777,-0.2837,0.0225,0.6001
0x50,9,39,3.57,15.799,-0.2837,0.0225,0.6001
0x50,9,39,3.57,15.799,0.2446,0.0215,0.373
0x50,9,39,3.58,15.809,0.2446,0.0215,0.373
0x50,9,39,3.591,15.82,0.3325,0.0586,1.5034
0x50,9,39,3.641,15.87,0.3325,0.0586,1.5034
0x50,9,39,3.641,15.87,0.6274,0.2095,1.7153
0x50,9,39,3.641,15.87,0.6274,0.2095,1.7153
0x50,9,39,3.641,15.87,0.5908,0.1494,0.5278
0x50,9,39,3.688,15.917,0.5908,0.1494,0.5278
0x50,9,39,3.7,15.929,0.269,-0.0103,0.3696
0x50,9,39,3.702,15.931,0.269,-0.0103,0.3696
0x50,9,39,3.704,15.933,-0.6162,-0.1016,1.2061
0x50,9,39,3.707,15.936,-0.6162,-0.1016,1.2061
0x50,9,39,3.71,15.939,-1.0732,-0.2271,1.6421
0x50,9,39,3.712,15.941,-1.0732,-0.2271,1.6421
0x50,9,39,3.714,15.943,-1.0732,-0.2271,1.6421
0x50,9,39,3.722,15.951,-0.6055,-0.2334,0.9951
0x50,9,39,3.732,15.961,-0.6055,-0.2334,0.9951
0x50,9,39,3.743,15.972,-0.0371,0.0566,0.2915
0x50,9,39,3.747,15.976,-0.0371,0.0566,0.2915
0x50,9,39,3.763,15.992,0.3315,-0.0093,0.7251
0x50,9,39,3.768,15.997,0.3315,-0.0093,0.7251
0x50,9,39,3.822,16.051,0.4155,0.1582,2.0425
0x50,9,39,3.822,16.051,0.4155,0.1582,2.0425
0x50,9,39,3.823,16.052,0.6777,0.1318,1.0884
0x50,9,39,3.823,16.052,0.6777,0.1318,1.0884
0x50,9,39,3.823,16.052,0.5005,0.1763,0.2656
0x50,9,39,3.828,16.057,0.5005,0.1763,0.2656
0x50,9,39,3.839,16.068,-0.0498,-0.1235,0.7744
0x50,9,39,3.849,16.078,-0.0498,-0.1235,0.7744
0x50,9,39,3.86,16.089,-0.999,-0.0195,1.54
0x50,9,39,3.87,16.099,-0.999,-0.0195,1.54
0x50,9,39,3.88,16.109,-0.8765,-0.3726,1.2256
0x50,9,39,3.89,16.119,-0.8765,-0.3726,1.2256
0x50,9,39,3.901,16.13,-0.356,-0.0146,0.7271
0x50,9,39,3.931,16.16,-0.356,-0.0146,0.7271
0x50,9,39,3.933,16.162,0.1934,0.0366,0.3096
0x50,9,39,3.936,16.165,0.1934,0.0366,0.3096
0x50,9,39,3.949,16.178,0.332,0.0273,1.29
0x50,9,39,3.959,16.188,0.332,0.0273,1.29
0x50,9,39,3.969,16.198,0.5825,0.2139,1.9185
0x50,9,39,4.018,16.247,0.5825,0.2139,1.9185
0x50,9,39,4.018,16.247,0.6006,0.1143,0.6484
0x50,9,39,4.059,16.288,0.6006,0.1143,0.6484
0x50,9,39,4.062,16.291,0.3384,0.0459,0.2939
0x50,9,39,4.064,16.293,0.3384,0.0459,0.2939
0x50,9,39,4.067,16.296,-0.4883,-0.1274,1.104
0x50,9,39,4.069,16.298,-0.4883,-0.1274,1.104
0x50,9,39,4.072,16.301,-1.106,-0.1528,1.6919
0x50,9,39,4.075,16.304,-1.106,-0.1528,1.6919
0x50,9,39,4.077,16.306,-0.6704,-0.3003,1.0391
0x50,9,39,4.08,16.309,-0.6704,-0.3003,1.0391
0x50,9,39,4.082,16.311,-0.1201,0.062,0.3657
0x50,9,39,4.088,16.317,-0.1201,0.062,0.3657
0x50,9,39,4.098,16.327,0.3394,-0.0024,0.5918
0x50,9,39,4.109,16.338,0.3394,-0.0024,0.5918
0x50,9,39,4.118,16.347,0.3862,0.1304,1.9072
0x50,9,39,4.13,16.359,0.3862,0.1304,1.9072
0x50,9,39,4.138,16.367,0.6792,0.1699,1.2656
0x50,9,39,4.149,16.378,0.6792,0.1699,1.2656
0x50,9,39,4.156,16.385,0.5317,0.1841,0.3208
0x50,9,39,4.172,16.401,0.5317,0.1841,0.3208
0x50,9,39,4.175,16.404,0.0718,-0.0991,0.6357
0x50,9,39,4.191,16.42,0.0718,-0.0991,0.6357
0x50,9,39,4.193,16.422,-0.8931,-0.0396,1.4287
0x50,9,39,4.21,16.439,-0.8931,-0.0396,1.4287
0x50,9,39,4.254,16.483,-0.9565,-0.3564,1.3711
0x50,9,39,4.254,16.483,-0.9565,-0.3564,1.3711
0x50,9,39,4.254,16.483,-0.4443,-0.0762,0.832
0x50,9,39,4.256,16.485,-0.4443,-0.0762,0.832
0x50,9,39,4.256,16.485,0.1323,0.0459,0.2646
0x50,9,39,4.268,16.497,0.1323,0.0459,0.2646
0x50,9,39,4.293,16.522,0.3311,0.0039,1.0913
0x50,9,39,4.295,16.524,0.3311,0.0039,1.0913
0x50,9,39,4.298,16.527,0.5278,0.2041,2.0576
0x50,9,39,4.308,16.537,0.5278,0.2041,2.0576
0x50,9,39,4.324,16.553,0.6274,0.1021,0.772
0x50,9,39,4.326,16.555,0.6274,0.1021,0.772
0x50,9,39,4.342,16.571,0.3975,0.1025,0.251
0x50,9,39,4.346,16.575,0.3975,0.1025,0.251
0x50,9,39,4.358,16.587,-0.3423,-0.1357,1.019
0x50,9,39,4.369,16.598,-0.3423,-0.1357,1.019
0x50,9,39,4.394,16.623,-1.1133,-0.085,1.6772
0x50,9,39,4.442,16.671,-1.1133,-0.085,1.6772
0x50,9,39,4.442,16.671,-0.7354,-0.3423,1.0713
0x50,9,39,4.443,16.672,-0.7354,-0.3423,1.0713
0x50,9,39,4.443,16.672,-0.1963,0.0508,0.4722
0x50,9,39,4.443,16.672,-0.1963,0.0508,0.4722
0x50,9,39,4.443,16.672,0.3237,0.0205,0.4702
0x50,9,39,4.446,16.675,0.3237,0.0205,0.4702
0x50,9,39,4.456,16.685,0.3691,0.0957,1.7217
0x50,9,39,4.465,16.694,0.3691,0.0957,1.7217
0x50,9,39,4.477,16.706,0.6689,0.1997,1.4907
0x50,9,39,4.483,16.712,0.6689,0.1997,1.4907
0x50,9,39,4.5,16.729,0.5474,0.1719,0.4048
0x50,9,39,4.503,16.732,0.5474,0.1719,0.4048
0x50,9,39,4.519,16.748,0.1602,-0.0552,0.5039
0x50,9,39,4.523,16.752,0.1602,-0.0552,0.5039
0x50,9,39,4.538,16.767,-0.7827,-0.0713,1.3018
0x50,9,39,4.559,16.788,-0.7827,-0.0713,1.3018
0x50,9,39,4.561,16.79,-1.0327,-0.3091,1.5181
0x50,9,39,4.577,16.806,-1.0327,-0.3091,1.5181
0x50,9,39,4.583,16.812,-0.5313,-0.1353,0.9253
0x50,9,39,4.633,16.862,-0.5313,-0.1353,0.9253
0x50,9,39,4.634,16.863,0.0679,0.0469,0.2607
0x50,9,39,4.636,16.865,0.0679,0.0469,0.2607
0x50,9,39,4.646,16.875,0.3599,0.002,0.8994
0x50,9,39,4.648,16.877,0.3599,0.002,0.8994
0x50,9,39,4.651,16.88,0.4878,0.1763,2.0923
0x50,9,39,4.653,16.882,0.4878,0.1763,2.0923
0x50,9,39,4.658,16.887,0.6504,0.1133,0.9194
0x50,9,39,4.667,16.896,0.6504,0.1133,0.9194
0x50,9,39,4.673,16.902,0.4443,0.1357,0.2358
0x50,9,39,4.688,16.917,0.4443,0.1357,0.2358
0x50,9,39,4.692,16.921,-0.1899,-0.1494,0.9106
0x50,9,39,4.708,16.937,-0.1899,-0.1494,0.9106
0x50,9,39,4.712,16.941,-1.0952,-0.0356,1.6172
0x50,9,39,4.727,16.956,-1.0952,-0.0356,1.6172
0x50,9,39,4.733,16.962,-0.8003,-0.3867,1.1338
0x50,9,39,4.766,16.995,-0.8003,-0.3867,1.1338
0x50,9,39,4.823,17.052,-0.271,0.0361,0.5962
0x50,9,39,4.824,17.053,-0.271,0.0361,0.5962
0x50,9,39,4.824,17.053,0.2769,0.0254,0.3682
0x50,9,39,4.824,17.053,0.2769,0.0254,0.3682
0x50,9,39,4.824,17.053,0.354,0.0649,1.5181
0x50,9,39,4.824,17.053,0.354,0.0649,1.5181
0x50,9,39,4.824,17.053,0.6362,0.1997,1.7212
0x50,9,39,4.825,17.054,0.6362,0.1997,1.7212
0x50,9,39,4.843,17.072,0.563,0.1489,0.5156
0x50,9,39,4.843,17.072,0.563,0.1489,0.5156
0x50,9,39,4.852,17.081,0.2378,-0.0015,0.375
0x50,9,39,4.866,17.095,0.2378,-0.0015,0.375
0x50,9,39,4.885,17.114,-0.6348,-0.106,1.187
0x50,9,39,4.885,17.114,-0.6348,-0.106,1.187
0x50,9,39,4.891,17.12,-1.0859,-0.2373,1.6357
0x50,9,39,4.908,17.137,-1.0859,-0.2373,1.6357
0x50,9,39,4.925,17.154,-0.5942,-0.2275,1.0073
0x50,9,39,4.928,17.157,-0.5942,-0.2275,1.0073
0x50,9,39,4.934,17.163,-0.0317,0.0684,0.2969
0x50,9,39,4.944,17.173,-0.0317,0.0684,0.2969
0x50,9,39,4.954,17.183,0.3584,-0.0083,0.7212
0x50,9,39,4.966,17.195,0.3584,-0.0083,0.7212
0x50,9,39,4.972,17.201,0.438,0.1587,2.0435
0x50,9,39,4.987,17.216,0.438,0.1587,2.0435
0x50,9,39,4.991,17.22,0.6743,0.1426,1.0967
0x50,9,39,5.006,17.235,0.6743,0.1426,1.0967
0x50,9,39,5.012,17.241,0.48,0.1831,0.272
0x50,9,39,5.022,17.251,0.48,0.1831,0.272
0x50,9,39,5.058,17.287,-0.064,-0.1187,0.7749
0x50,9,39,5.058,17.287,-0.064,-0.1187,0.7749
0x50,9,39,5.058,17.287,-1.0112,-0.0254,1.5103
0x50,9,39,5.061,17.29,-1.0112,-0.0254,1.5103
0x50,9,39,5.077,17.306,-0.8833,-0.374,1.2495
0x50,9,39,5.08,17.309,-0.8833,-0.374,1.2495
0x50,9,39,5.096,17.325,-0.3535,-0.0029,0.7427
0x50,9,39,5.1,17.329,-0.3535,-0.0029,0.7427
0x50,9,39,5.127,17.356,0.2246,0.0298,0.293
0x50,9,39,5.151,17.38,0.2246,0.0298,0.293
0x50,9,39,5.165,17.394,0.3662,0.0317,1.2661
0x50,9,39,5.168,17.397,0.3662,0.0317,1.2661
0x50,9,39,5.17,17.399,0.5942,0.2012,1.9341
0x50,9,39,5.176,17.405,0.5942,0.2012,1.9341
0x50,9,39,5.178,17.407,0.5825,0.1069,0.6494
0x50,9,39,5.195,17.424,0.5825,0.1069,0.6494
0x50,9,39,5.195,17.424,0.3076,0.0625,0.3047
0x50,9,39,5.239,17.468,0.3076,0.0625,0.3047
0x50,9,39,5.239,17.468,-0.4888,-0.1353,1.0962
0x50,9,39,5.24,17.469,-0.4888,-0.1353,1.0962
0x50,9,39,5.241,17.47,-1.1201,-0.1416,1.6821
0x50,9,39,5.284,17.513,-1.1201,-0.1416,1.6821
0x50,9,39,5.286,17.515,-0.6577,-0.2866,1.0376
0x50,9,39,5.289,17.518,-0.6577,-0.2866,1.0376
0x50,9,39,5.291,17.52,-0.1211,0.0806,0.4106
0x50,9,39,5.294,17.523,-0.1211,0.0806,0.4106
0x50,9,39,5.296,17.525,0.3433,0.0171,0.5737
0x50,9,39,5.3,17.529,0.3433,0.0171,0.5737
0x50,9,39,5.315,17.544,0.4048,0.1289,1.8823
0x50,9,39,5.319,17.548,0.4048,0.1289,1.8823
0x50,9,39,5.334,17.563,0.6699,0.165,1.2915
0x50,9,39,5.342,17.571,0.6699,0.165,1.2915
0x50,9,39,5.352,17.581,0.521,0.187,0.3457
0x50,9,39,5.363,17.592,0.521,0.187,0.3457
0x50,9,39,5.37,17.599,0.0703,-0.1055,0.6147
0x50,9,39,5.382,17.611,0.0703,-0.1055,0.6147
0x50,9,39,5.389,17.618,-0.8696,-0.0557,1.3779
0x50,9,39,5.43,17.659,-0.8696,-0.0557,1.3779
0x50,9,39,5.43,17.659,-0.9595,-0.3462,1.3989
0x50,9,39,5.43,17.659,-0.9595,-0.3462,1.3989
0x50,9,39,5.43,17.659,-0.4424,-0.0908,0.8408
0x50,9,39,5.444,17.673,-0.4424,-0.0908,0.8408
0x50,9,39,5.447,17.676,0.1343,0.0459,0.2607
0x50,9,39,5.462,17.691,0.1343,0.0459,0.2607
0x50,9,39,5.495,17.724,0.3374,0.0156,1.041
0x50,9,39,5.495,17.724,0.3374,0.0156,1.041
0x50,9,39,5.534,17.763,0.5244,0.1978,2.0728
0x50,9,39,5.534,17.763,0.5244,0.1978,2.0728
0x50,9,39,5.541,17.77,0.6162,0.1001,0.8018
0x50,9,39,5.541,17.77,0.6162,0.1001,0.8018
0x50,9,39,5.544,17.773,0.3843,0.1353,0.2598
0x50,9,39,5.546,17.775,0.3843,0.1353,0.2598
0x50,9,39,5.565,17.794,-0.3232,-0.1465,0.9922
0x50,9,39,5.567,17.796,-0.3232,-0.1465,0.9922
0x50,9,39,5.57,17.799,-1.1147,-0.0757,1.6699
0x50,9,39,5.581,17.81,-1.1147,-0.0757,1.6699
0x50,9,39,5.593,17.822,-0.7437,-0.3496,1.0913
0x50,9,39,5.599,17.828,-0.7437,-0.3496,1.0913
0x50,9,39,5.614,17.843,-0.1948,0.0586,0.5205
0x50,9,39,5.617,17.846,-0.1948,0.0586,0.5205
0x50,9,39,5.634,17.863,0.3276,0.0171,0.4336
0x50,9,39,5.669,17.898,0.3276,0.0171,0.4336
0x50,9,39,5.669,17.898,0.3813,0.0952,1.6807
0x50,9,39,5.669,17.898,0.3813,0.0952,1.6807
0x50,9,39,5.673,17.902,0.6621,0.1748,1.5347
0x50,9,39,5.676,17.905,0.6621,0.1748,1.5347
0x50,9,39,5.692,17.921,0.54,0.1621,0.4194
0x50,9,39,5.698,17.927,0.54,0.1621,0.4194
0x50,9,39,5.714,17.943,0.1738,-0.0596,0.481
0x50,9,39,5.716,17.945,0.1738,-0.0596,0.481
0x50,9,39,5.732,17.961,0.1738,-0.0596,0.481
0x50,9,39,5.738,17.967,-0.752,-0.0801,1.2681
0x50,9,39,5.754,17.983,-0.752,-0.0801,1.2681
0x50,9,39,5.755,17.984,-1.04,-0.2852,1.542
0x50,9,39,5.771,18,-1.04,-0.2852,1.542
0x50,9,39,5.775,18.004,-0.54,-0.1572,0.9463
0x50,9,39,5.791,18.02,-0.54,-0.1572,0.9463
0x50,9,39,5.796,18.025,0.0415,0.062,0.2817
0x50,9,39,5.811,18.04,0.0415,0.062,0.2817
0x50,9,39,5.815,18.044,0.353,0.0093,0.8574
0x50,9,39,5.861,18.09,0.353,0.0093,0.8574
0x50,9,39,5.861,18.09,0.4644,0.187,2.0864
0x50,9,39,5.886,18.115,0.4644,0.187,2.0864
0x50,9,39,5.911,18.14,0.6533,0.1182,0.9429
0x50,9,39,5.934,18.163,0.6533,0.1182,0.9429
0x50,9,39,5.941,18.17,0.4624,0.1743,0.2637
0x50,9,39,5.943,18.172,0.4624,0.1743,0.2637
0x50,9,39,5.946,18.175,-0.1548,-0.147,0.8877
0x50,9,39,5.948,18.177,-0.1548,-0.147,0.8877
0x50,9,39,5.951,18.18,-1.0664,-0.0313,1.5864
0x50,9,39,5.953,18.182,-1.0664,-0.0313,1.5864
0x50,9,39,5.956,18.185,-0.8262,-0.3901,1.1455
0x50,9,39,5.958,18.187,-0.8262,-0.3901,1.1455
0x50,9,39,5.961,18.19,-0.293,0.0298,0.6509
0x50,9,39,5.969,18.198,-0.293,0.0298,0.6509
0x50,9,39,5.982,18.211,0.2734,0.0024,0.3477
0x50,9,39,5.985,18.214,0.2734,0.0024,0.3477
0x50,9,39,6,18.229,0.3384,0.062,1.4482
0x50,9,39,6.006,18.235,0.3384,0.062,1.4482
0x50,9,39,6.049,18.278,0.6362,0.1826,1.7827
0x50,9,39,6.049,18.278,0.6362,0.1826,1.7827
0x50,9,39,6.049,18.278,0.5718,0.1313,0.5459
0x50,9,39,6.049,18.278,0.5718,0.1313,0.5459
0x50,9,39,6.06,18.289,0.2656,0.0083,0.3447
0x50,9,39,6.067,18.296,0.2656,0.0083,0.3447
0x50,9,39,6.076,18.305,-0.6011,-0.1191,1.1748
0x50,9,39,6.087,18.316,-0.6011,-0.1191,1.1748
0x50,9,39,6.098,18.327,-1.104,-0.209,1.6587
0x50,9,39,6.117,18.346,-1.104,-0.209,1.6587
0x50,9,39,6.117,18.346,-0.6177,-0.2417,0.9951
0x50,9,39,6.14,18.369,-0.6177,-0.2417,0.9951
0x50,9,39,6.14,18.369,-0.0283,0.0859,0.3281
0x50,9,39,6.157,18.386,-0.0283,0.0859,0.3281
0x50,9,39,6.157,18.386,0.3696,0.0054,0.6846
0x50,9,39,6.18,18.409,0.3696,0.0054,0.6846
0x50,9,39,6.18,18.409,0.4336,0.1597,2.0146
0x50,9,39,6.197,18.426,0.4336,0.1597,2.0146
0x50,9,39,6.197,18.426,0.6685,0.1436,1.1304
0x50,9,39,6.206,18.435,0.6685,0.1436,1.1304
0x50,9,39,6.283,18.512,0.4937,0.1792,0.2817
0x50,9,39,6.283,18.512,0.4937,0.1792,0.2817
0x50,9,39,6.283,18.512,-0.0322,-0.1353,0.7324
0x50,9,39,6.283,18.512,-0.0322,-0.1353,0.7324
0x50,9,39,6.283,18.512,-1.001,-0.0151,1.499
0x50,9,39,6.283,18.512,-1.001,-0.0151,1.499
0x50,9,39,6.283,18.512,-0.9038,-0.3936,1.269
0x50,9,39,6.285,18.514,-0.9038,-0.3936,1.269
0x50,9,39,6.3,18.529,-0.3853,-0.0015,0.7607
0x50,9,39,6.304,18.533,-0.3853,-0.0015,0.7607
0x50,9,39,6.319,18.548,0.2065,0.0181,0.2861
0x50,9,39,6.326,18.555,0.2065,0.0181,0.2861
0x50,9,39,6.334,18.563,0.3486,0.0444,1.2427
0x50,9,39,6.349,18.578,0.3486,0.0444,1.2427
0x50,9,39,6.353,18.582,0.5869,0.2031,1.9658
0x50,9,39,6.369,18.598,0.5869,0.2031,1.9658
0x50,9,39,6.373,18.602,0.5957,0.1118,0.6655
0x50,9,39,6.388,18.617,0.5957,0.1118,0.6655
0x50,9,39,6.391,18.62,0.3467,0.063,0.2881
0x50,9,39,6.409,18.638,0.3467,0.063,0.2881
0x50,9,39,6.412,18.641,-0.4409,-0.1533,1.0908
0x50,9,39,6.427,18.656,-0.4409,-0.1533,1.0908
0x50,9,39,6.433,18.662,-1.1309,-0.1475,1.6895
0x50,9,39,6.472,18.701,-1.1309,-0.1475,1.6895
0x50,9,39,6.472,18.701,-0.688,-0.3257,1.0479
0x50,9,39,6.472,18.701,-0.688,-0.3257,1.0479
0x50,9,39,6.487,18.716,-0.124,0.0747,0.4048
0x50,9,39,6.487,18.716,-0.124,0.0747,0.4048
0x50,9,39,6.505,18.734,0.355,0.002,0.5264
0x50,9,39,6.511,18.74,0.355,0.002,0.5264
0x50,9,39,6.528,18.757,0.3877,0.1289,1.875
0x50,9,39,6.528,18.757,0.3877,0.1289,1.875
0x50,9,39,6.563,18.792,0.6855,0.1567,1.3462
0x50,9,39,6.566,18.795,0.6855,0.1567,1.3462
0x50,9,39,6.568,18.797,0.5205,0.1919,0.332
0x50,9,39,6.571,18.8,0.5205,0.1919,0.332
0x50,9,39,6.574,18.803,0.0752,-0.0874,0.585
0x50,9,39,6.599,18.828,0.0752,-0.0874,0.585
0x50,9,39,6.659,18.888,-0.8711,-0.041,1.3848
0x50,9,39,6.659,18.888,-0.8711,-0.041,1.3848
0x50,9,39,6.659,18.888,-0.9946,-0.3447,1.4121
0x50,9,39,6.659,18.888,-0.9946,-0.3447,1.4121
0x50,9,39,6.659,18.888,-0.4702,-0.0776,0.8696
0x50,9,39,6.659,18.888,-0.4702,-0.0776,0.8696
0x50,9,39,6.659,18.888,0.1431,0.0352,0.2705
0x50,9,39,6.668,18.897,0.1431,0.0352,0.2705
0x50,9,39,6.671,18.9,0.3643,0.0269,1.0151
0x50,9,39,6.688,18.917,0.3643,0.0269,1.0151
0x50,9,39,6.691,18.92,0.5352,0.1885,2.0791
0x50,9,39,6.706,18.935,0.5352,0.1885,2.0791
0x50,9,39,6.713,18.942,0.6196,0.1011,0.8179
0x50,9,39,6.724,18.953,0.6196,0.1011,0.8179
0x50,9,39,6.734,18.963,0.4043,0.1206,0.2617
0x50,9,39,6.742,18.971,0.4043,0.1206,0.2617
0x50,9,39,6.754,18.983,-0.293,-0.1621,0.98
0x50,9,39,6.775,19.004,-0.293,-0.1621,0.98
0x50,9,39,6.779,19.008,-1.1338,-0.0742,1.6436
0x50,9,39,6.798,19.027,-1.1338,-0.0742,1.6436
0x50,9,39,6.798,19.027,-0.7681,-0.3687,1.0918
0x50,9,39,6.813,19.042,-0.7681,-0.3687,1.0918
0x50,9,39,6.813,19.042,-0.2168,0.0591,0.5503
0x50,9,39,6.837,19.066,-0.2168,0.0591,0.5503
0x50,9,39,6.837,19.066,0.335,0.0181,0.4136
0x50,9,39,6.845,19.074,0.335,0.0181,0.4136
0x50,9,39,6.852,19.081,0.3765,0.0928,1.6318
0x50,9,39,6.903,19.132,0.3765,0.0928,1.6318
0x50,9,39,6.903,19.132,0.6694,0.187,1.6001
0x50,9,39,6.903,19.132,0.6694,0.187,1.6001
0x50,9,39,6.903,19.132,0.5332,0.1592,0.4443
0x50,9,39,6.905,19.134,0.5332,0.1592,0.4443
0x50,9,39,6.911,19.14,0.1846,-0.0239,0.4492
0x50,9,39,6.926,19.155,0.1846,-0.0239,0.4492
0x50,9,39,6.93,19.159,-0.7139,-0.0942,1.2471
0x50,9,39,6.959,19.188,-0.7139,-0.0942,1.2471
0x50,9,39,6.984,19.213,-1.0762,-0.2729,1.5669
0x50,9,39,7.009,19.238,-1.0762,-0.2729,1.5669
0x50,9,39,7.015,19.244,-0.5664,-0.1606,0.9692
0x50,9,39,7.016,19.245,-0.5664,-0.1606,0.9692
0x50,9,39,7.019,19.248,0.0591,0.0522,0.2861
0x50,9,39,7.021,19.25,0.0591,0.0522,0.2861
0x50,9,39,7.024,19.253,0.3828,0.022,0.7905
0x50,9,39,7.026,19.255,0.3828,0.022,0.7905
0x50,9,39,7.03,19.259,0.4688,0.1602,2.0889
0x50,9,39,7.045,19.274,0.4688,0.1602,2.0889
0x50,9,39,7.048,19.277,0.6548,0.0986,0.9971
0x50,9,39,7.098,19.327,0.6548,0.0986,0.9971
0x50,9,39,7.098,19.327,0.4482,0.1704,0.2539
0x50,9,39,7.098,19.327,0.4482,0.1704,0.2539
0x50,9,39,7.098,19.327,-0.1299,-0.1665,0.8359
0x50,9,39,7.1,19.329,-0.1299,-0.1665,0.8359
0x50,9,39,7.122,19.351,-1.0674,-0.0405,1.5605
0x50,9,39,7.122,19.351,-1.0674,-0.0405,1.5605
0x50,9,39,7.143,19.372,-0.854,-0.3828,1.186
0x50,9,39,7.147,19.376,-0.854,-0.3828,1.186
0x50,9,39,7.162,19.391,-0.3115,0.0254,0.6953
0x50,9,39,7.164,19.393,-0.3115,0.0254,0.6953
0x50,9,39,7.172,19.401,0.2734,0.0283,0.3301
0x50,9,39,7.197,19.426,0.2734,0.0283,0.3301
0x50,9,39,7.209,19.438,0.3579,0.0796,1.376
0x50,9,39,7.212,19.441,0.3579,0.0796,1.376
0x50,9,39,7.214,19.443,0.6201,0.2007,1.8564
0x50,9,39,7.223,19.452,0.6201,0.2007,1.8564
0x50,9,39,7.23,19.459,0.5522,0.1304,0.5811
0x50,9,39,7.239,19.468,0.5522,0.1304,0.5811
0x50,9,39,7.287,19.516,0.2856,0.04,0.3413
0x50,9,39,7.287,19.516,0.2856,0.04,0.3413
0x50,9,39,7.287,19.516,-0.5459,-0.1401,1.1382
0x50,9,39,7.287,19.516,-0.5459,-0.1401,1.1382
0x50,9,39,7.291,19.52,-1.1235,-0.1997,1.6631
0x50,9,39,7.3,19.529,-1.1235,-0.1997,1.6631
0x50,9,39,7.311,19.54,-0.6484,-0.2637,1.0298
0x50,9,39,7.336,19.565,-0.6484,-0.2637,1.0298
0x50,9,39,7.362,19.591,-0.0435,0.0547,0.3574
0x50,9,39,7.371,19.6,-0.0435,0.0547,0.3574
0x50,9,39,7.374,19.603,0.3906,0.0049,0.5967
0x50,9,39,7.378,19.607,0.3906,0.0049,0.5967
0x50,9,39,7.384,19.613,0.4102,0.1294,1.9653
0x50,9,39,7.388,19.617,0.4102,0.1294,1.9653
0x50,9,39,7.388,19.617,0.6733,0.1318,1.231
0x50,9,39,7.416,19.645,0.6733,0.1318,1.231
0x50,9,39,7.418,19.647,0.4863,0.188,0.2896
0x50,9,39,7.43,19.659,0.4863,0.188,0.2896
0x50,9,39,7.43,19.659,0.0244,-0.1206,0.6606
0x50,9,39,7.471,19.7,0.0244,-0.1206,0.6606
0x50,9,39,7.471,19.7,-0.9443,-0.0195,1.4604
0x50,9,39,7.471,19.7,-0.9443,-0.0195,1.4604
0x50,9,39,7.471,19.7,-0.9541,-0.3604,1.3389
0x50,9,39,7.48,19.709,-0.9541,-0.3604,1.3389
0x50,9,39,7.489,19.718,-0.4424,-0.0127,0.8237
0x50,9,39,7.504,19.733,-0.4424,-0.0127,0.8237
0x50,9,39,7.506,19.735,0.187,0.0508,0.2939
0x50,9,39,7.521,19.75,0.187,0.0508,0.2939
0x50,9,39,7.529,19.758,0.3813,0.0698,1.0962
0x50,9,39,7.539,19.768,0.3813,0.0698,1.0962
0x50,9,39,7.549,19.778,0.5615,0.1724,2.0054
0x50,9,39,7.559,19.788,0.5615,0.1724,2.0054
0x50,9,39,7.574,19.803,0.5718,0.1025,0.7778
0x50,9,39,7.577,19.806,0.5718,0.1025,0.7778
0x50,9,39,7.587,19.816,0.3423,0.106,0.3159
0x50,9,39,7.6,19.829,0.3423,0.106,0.3159
0x50,9,39,7.606,19.835,-0.2544,-0.1929,1.0146
0x50,9,39,7.621,19.85,-0.2544,-0.1929,1.0146
0x50,9,39,7.664,19.893,-1.063,-0.2104,1.5249
0x50,9,39,7.665,19.894,-1.063,-0.2104,1.5249
0x50,9,39,7.665,19.894,-0.8604,-0.3486,1.0576
0x50,9,39,7.665,19.894,-0.8604,-0.3486,1.0576
0x50,9,39,7.691,19.92,-0.3242,0.0181,0.6792
0x50,9,39,7.691,19.92,-0.3242,0.0181,0.6792
0x50,9,39,7.722,19.951,0.4741,0.0947,0.564
0x50,9,39,7.739,19.968,0.4741,0.0947,0.564
0x50,9,39,7.742,19.971,0.7095,0.0371,1.1733
0x50,9,39,7.747,19.976,0.7095,0.0371,1.1733
0x50,9,39,7.75,19.979,0.6304,0.0977,1.7026
0x50,9,39,7.752,19.981,0.6304,0.0977,1.7026
0x50,9,39,7.757,19.986,0.2041,0.0454,0.7534
0x50,9,39,7.768,19.997,0.2041,0.0454,0.7534
0x50,9,39,7.775,20.004,0.2041,0.0454,0.7534
0x50,9,39,7.785,20.014,-0.1304,0.1362,0.5991
0x50,9,39,7.8,20.029,-0.1304,0.1362,0.5991
0x50,9,39,7.802,20.031,-0.3799,-0.1987,1.1641
0x50,9,39,7.806,20.035,-0.3799,-0.1987,1.1641
0x50,9,39,7.844,20.073,-0.7905,-0.1255,1.0732
0x50,9,39,7.846,20.075,-0.7905,-0.1255,1.0732
0x50,9,39,7.849,20.078,-0.6836,-0.1665,0.9058
0x50,9,39,7.855,20.084,-0.6836,-0.1665,0.9058
0x50,9,39,7.856,20.085,-0.2505,0.0288,1.062
0x50,9,39,7.866,20.095,-0.2505,0.0288,1.062
0x50,9,39,7.902,20.131,0.4365,0.2222,1.0112
0x50,9,39,7.902,20.131,0.4365,0.2222,1.0112
0x50,9,39,7.902,20.131,0.9014,0.1758,0.9102
0x50,9,39,7.906,20.135,0.9014,0.1758,0.9102
0x50,9,39,7.919,20.148,0.5854,0.1177,1.0688
0x50,9,39,7.926,20.155,0.5854,0.1177,1.0688
0x50,9,39,7.936,20.165,0.0376,-0.0918,1.1045
0x50,9,39,7.947,20.176,0.0376,-0.0918,1.1045
0x50,9,39,7.958,20.187,-0.6118,-0.1484,0.8853
0x50,9,39,7.965,20.194,-0.6118,-0.1484,0.8853
0x50,9,39,7.975,20.204,-0.5898,-0.2158,0.9619
0x50,9,39,7.986,20.215,-0.5898,-0.2158,0.9619
0x50,9,39,7.997,20.226,-0.2598,-0.0649,1.1714
0x50,9,39,8.007,20.236,-0.2598,-0.0649,1.1714
0x50,9,39,8.017,20.246,-0.0469,0.0122,0.7559
0x50,9,39,8.027,20.256,-0.0469,0.0122,0.7559
0x50,9,39,8.046,20.275,0.1792,-0.0444,0.8315
0x50,9,39,8.046,20.275,0.1792,-0.0444,0.8315
0x50,9,39,8.115,20.344,0.0903,0.0195,1.2744
0x50,9,39,8.115,20.344,0.0903,0.0195,1.2744
0x50,9,39,8.12,20.349,0.2266,0.0415,1.2803
0x50,9,39,8.12,20.349,0.2266,0.0415,1.2803
0x50,9,39,8.125,20.354,0.1284,0.1357,0.7583
0x50,9,39,8.125,20.354,0.1284,0.1357,0.7583
0x50,9,39,8.13,20.359,0.0205,0.1016,0.8521
0x50,9,39,8.135,20.364,0.0205,0.1016,0.8521
0x50,9,39,8.137,20.366,-0.2217,-0.083,1.1172
0x50,9,39,8.144,20.373,-0.2217,-0.083,1.1172
0x50,9,39,8.159,20.388,-0.4819,-0.1216,1.0088
0x50,9,39,8.164,20.393,-0.4819,-0.1216,1.0088
0x50,9,39,8.189,20.418,-0.373,-0.1323,0.9795
0x50,9,39,8.192,20.421,-0.373,-0.1323,0.9795
0x50,9,39,8.194,20.423,-0.0303,0.0366,1.1187
0x50,9,39,8.208,20.437,-0.0303,0.0366,1.1187
0x50,9,39,8.218,20.447,0.3228,0.126,0.9512
0x50,9,39,8.221,20.45,0.3228,0.126,0.9512
0x50,9,39,8.236,20.465,0.4824,0.1621,0.9155
0x50,9,39,8.272,20.501,0.4824,0.1621,0.9155
0x50,9,39,8.273,20.502,0.2998,0.022,1.0732
0x50,9,39,8.273,20.502,0.2998,0.022,1.0732
0x50,9,39,8.276,20.505,-0.0464,-0.063,1.0757
0x50,9,39,8.282,20.511,-0.0464,-0.063,1.0757
0x50,9,39,8.297,20.526,-0.374,-0.1689,0.8516
0x50,9,39,8.301,20.53,-0.374,-0.1689,0.8516
0x50,9,39,8.316,20.545,-0.4722,-0.1743,0.9697
0x50,9,39,8.32,20.549,-0.4722,-0.1743,0.9697
0x50,9,39,8.333,20.562,-0.3203,-0.0796,1.1816
0x50,9,39,8.344,20.573,-0.3203,-0.0796,1.1816
0x50,9,39,8.354,20.583,-0.0615,0.0103,0.9419
0x50,9,39,8.386,20.615,-0.0615,0.0103,0.9419
0x50,9,39,8.387,20.616,0.2437,0.0894,0.8213
0x50,9,39,8.391,20.62,0.2437,0.0894,0.8213
0x50,9,39,8.391,20.62,0.3228,0.0391,1.0854
0x50,9,39,8.412,20.641,0.3228,0.0391,1.0854
0x50,9,39,8.438,20.667,0.2192,0.0127,1.1787
0x50,9,39,8.463,20.692,0.2192,0.0127,1.1787
0x50,9,39,8.52,20.749,-0.0361,-0.0171,0.9023
0x50,9,39,8.52,20.749,-0.0361,-0.0171,0.9023
0x50,9,39,8.52,20.749,-0.2241,-0.0376,0.9849
0x50,9,39,8.52,20.749,-0.2241,-0.0376,0.9849
0x50,9,39,8.52,20.749,-0.228,-0.0068,1.2134
0x50,9,39,8.52,20.749,-0.228,-0.0068,1.2134
0x50,9,39,8.52,20.749,-0.1274,0.043,0.9497
0x50,9,39,8.523,20.752,-0.1274,0.043,0.9497
0x50,9,39,8.525,20.754,0.0259,0.0801,0.7656
0x50,9,39,8.528,20.757,0.0259,0.0801,0.7656
0x50,9,39,8.531,20.76,0.0376,-0.0488,0.9434
0x50,9,39,8.544,20.773,0.0376,-0.0488,0.9434
0x50,9,39,8.551,20.78,-0.0229,-0.1201,1.187
0x50,9,39,8.567,20.796,-0.0229,-0.1201,1.187
0x50,9,39,8.57,20.799,-0.0254,-0.1387,1.0581
0x50,9,39,8.585,20.814,-0.0254,-0.1387,1.0581
0x50,9,39,8.588,20.817,-0.043,-0.1196,0.9287
0x50,9,39,8.603,20.832,-0.043,-0.1196,0.9287
0x50,9,39,8.61,20.839,-0.1255,-0.0601,0.999
0x50,9,39,8.625,20.854,-0.1255,-0.0601,0.999
0x50,9,39,8.628,20.857,-0.064,-0.0625,0.9927
0x50,9,39,8.643,20.872,-0.064,-0.0625,0.9927
0x50,9,39,8.649,20.878,-0.0161,0.0005,0.9116
0x50,9,39,8.667,20.896,-0.0161,0.0005,0.9116
0x50,9,39,8.707,20.936,0.0215,-0.0303,0.9839
0x50,9,39,8.708,20.937,0.0215,-0.0303,0.9839
0x50,9,39,8.708,20.937,-0.0298,-0.0176,1.1284
0x50,9,39,8.71,20.939,-0.0298,-0.0176,1.1284
0x50,9,39,8.72,20.949,-0.0854,-0.0044,1.0386
0x50,9,39,8.72,20.949,-0.0854,-0.0044,1.0386
0x50,9,39,8.731,20.96,-0.1079,0.019,0.936
0x50,9,39,8.746,20.975,-0.1079,0.019,0.936
0x50,9,39,8.751,20.98,-0.0972,0.0669,1.0098
0x50,9,39,8.768,20.997,-0.0972,0.0669,1.0098
0x50,9,39,8.77,20.999,0.0054,0.0562,1.0464
0x50,9,39,8.796,21.025,0.0054,0.0562,1.0464
0x50,9,39,8.822,21.051,0.0962,0.0933,0.9995
0x50,9,39,8.839,21.068,0.0962,0.0933,0.9995
0x50,9,39,8.842,21.071,0.1284,0.0078,0.9873
0x50,9,39,8.844,21.073,0.1284,0.0078,0.9873
0x50,9,39,8.847,21.076,0.0293,-0.0503,1.02
0x50,9,39,8.85,21.079,0.0293,-0.0503,1.02
0x50,9,39,8.855,21.084,-0.0889,-0.1455,0.9761
0x50,9,39,8.858,21.087,-0.0889,-0.1455,0.9761
0x50,9,39,8.894,21.123,-0.1968,-0.1655,0.9756
0x50,9,39,8.894,21.123,-0.1968,-0.1655,0.9756
0x50,9,39,8.894,21.123,-0.208,-0.1514,1.0327
0x50,9,39,8.899,21.128,-0.208,-0.1514,1.0327
0x50,9,39,8.909,21.138,-0.124,-0.084,1.0293
0x50,9,39,8.925,21.154,-0.124,-0.084,1.0293
0x50,9,39,8.929,21.158,-0.0039,0.0088,0.9575
0x50,9,39,8.944,21.173,-0.0039,0.0088,0.9575
0x50,9,39,8.949,21.178,0.0898,0.0542,0.9707
0x50,9,39,8.962,21.191,0.0898,0.0542,0.9707
0x50,9,39,8.972,21.201,0.1025,0.0684,1.0449
0x50,9,39,8.978,21.207,0.1025,0.0684,1.0449
0x50,9,39,8.992,21.221,0.0488,0.0391,1.0195
0x50,9,39,8.996,21.225,0.0488,0.0391,1.0195
0x50,9,39,9.011,21.24,-0.0386,0.0054,0.9854
0x50,9,39,9.032,21.261,-0.0386,0.0054,0.9854
0x50,9,39,9.032,21.261,-0.1357,-0.0464,1.0249
0x50,9,39,9.051,21.28,-0.1357,-0.0464,1.0249
0x50,9,39,9.055,21.284,-0.187,-0.0425,1.0327
0x50,9,39,9.067,21.296,-0.187,-0.0425,1.0327
0x50,9,39,9.071,21.3,-0.145,-0.0342,0.9653
0x50,9,39,9.081,21.31,-0.145,-0.0342,0.9653
0x50,9,39,9.088,21.317,-0.0396,0.0146,0.9805
0x50,9,39,9.136,21.365,-0.0396,0.0146,0.9805
0x50,9,39,9.136,21.365,0.0996,0.0073,1.0464
0x50,9,39,9.136,21.365,0.0996,0.0073,1.0464
0x50,9,39,9.136,21.365,0.1602,0.0195,1.0444
0x50,9,39,9.14,21.369,0.1602,0.0195,1.0444
0x50,9,39,9.169,21.398,0.1021,-0.0273,0.9683
0x50,9,39,9.194,21.423,0.1021,-0.0273,0.9683
0x50,9,39,9.209,21.438,-0.0249,-0.0781,0.9639
0x50,9,39,9.211,21.44,-0.0249,-0.0781,0.9639
0x50,9,39,9.214,21.443,-0.1724,-0.1274,0.9819
0x50,9,39,9.216,21.445,-0.1724,-0.1274,0.9819
0x50,9,39,9.219,21.448,-0.249,-0.1401,1.0215
0x50,9,39,9.221,21.45,-0.249,-0.1401,1.0215
0x50,9,39,9.23,21.459,-0.2183,-0.0967,1.0273
0x50,9,39,9.24,21.469,-0.2183,-0.0967,1.0273
0x50,9,39,9.246,21.475,-0.106,-0.0181,0.9966
0x50,9,39,9.262,21.491,-0.106,-0.0181,0.9966
0x50,9,39,9.265,21.494,0.0308,0.0562,0.9785
0x50,9,39,9.278,21.507,0.0308,0.0562,0.9785
0x50,9,39,9.288,21.517,0.1416,0.0884,1.0146
0x50,9,39,9.319,21.548,0.1416,0.0884,1.0146
0x50,9,39,9.319,21.548,0.1646,0.0771,1.0498
0x50,9,39,9.319,21.548,0.1646,0.0771,1.0498
0x50,9,39,9.34,21.569,0.0918,0.0415,1.0127
0x50,9,39,9.344,21.573,0.0918,0.0415,1.0127
0x50,9,39,9.359,21.588,-0.0376,-0.0269,0.9741
0x50,9,39,9.359,21.588,-0.0376,-0.0269,0.9741
0x50,9,39,9.38,21.609,-0.1646,-0.0952,0.9937
0x50,9,39,9.38,21.609,-0.1646,-0.0952,0.9937
0x50,9,39,9.387,21.616,-0.2344,-0.1221,1.0005
0x50,9,39,9.402,21.631,-0.2344,-0.1221,1.0005
0x50,9,39,9.406,21.635,-0.1885,-0.1108,0.9829
0x50,9,39,9.432,21.661,-0.1885,-0.1108,0.9829
0x50,9,39,9.432,21.661,-0.0635,-0.0537,0.999
0x50,9,39,9.441,21.67,-0.0635,-0.0537,0.999
0x50,9,39,9.445,21.674,0.0815,-0.0142,1.0352
0x50,9,39,9.477,21.706,0.0815,-0.0142,1.0352
0x50,9,39,9.477,21.706,0.1509,0.0308,1.0371
0x50,9,39,9.477,21.706,0.1509,0.0308,1.0371
0x50,9,39,9.519,21.748,0.1133,0.0327,0.9907
0x50,9,39,9.52,21.749,0.1133,0.0327,0.9907
0x50,9,39,9.52,21.749,-0.0083,0.0029,0.9731
0x50,9,39,9.52,21.749,-0.0083,0.0029,0.9731
0x50,9,39,9.539,21.768,-0.1401,-0.041,0.9966
0x50,9,39,9.564,21.793,-0.1401,-0.041,0.9966
0x50,9,39,9.574,21.803,-0.2114,-0.0889,1.0205
0x50,9,39,9.576,21.805,-0.2114,-0.0889,1.0205
0x50,9,39,9.579,21.808,-0.1899,-0.0728,1.0117
0x50,9,39,9.581,21.81,-0.1899,-0.0728,1.0117
0x50,9,39,9.585,21.814,-0.0938,-0.0415,0.9678
0x50,9,39,9.595,21.824,-0.0938,-0.0415,0.9678
0x50,9,39,9.605,21.834,0.0176,0,0.9814
0x50,9,39,9.621,21.85,0.0176,0,0.9814
0x50,9,39,9.624,21.853,0.0981,0.0234,1.0391
0x50,9,39,9.64,21.869,0.0981,0.0234,1.0391
0x50,9,39,9.643,21.872,0.1382,0.021,1.0659
0x50,9,39,9.659,21.888,0.1382,0.021,1.0659
0x50,9,39,9.663,21.892,0.0835,0.0303,1.0181
0x50,9,39,9.706,21.935,0.0835,0.0303,1.0181
0x50,9,39,9.706,21.935,-0.0293,-0.0088,0.9604
0x50,9,39,9.71,21.939,-0.0293,-0.0088,0.9604
0x50,9,39,9.712,21.941,-0.1504,-0.0532,0.9722
0x50,9,39,9.715,21.944,-0.1504,-0.0532,0.9722
0x50,9,39,9.731,21.96,-0.21,-0.0942,1.0088
0x50,9,39,9.756,21.985,-0.21,-0.0942,1.0088
0x50,9,39,9.766,21.995,-0.1631,-0.0967,1.0117
0x50,9,39,9.772,22.001,-0.1631,-0.0967,1.0117
0x50,9,39,9.774,22.003,-0.1631,-0.0967,1.0117
0x50,9,39,9.776,22.005,-0.041,-0.0723,0.9893
0x50,9,39,9.786,22.015,-0.041,-0.0723,0.9893
0x50,9,39,9.796,22.025,0.0542,-0.0376,0.9819
0x50,9,39,9.804,22.033,0.0542,-0.0376,0.9819
0x50,9,39,9.815,22.044,0.0918,-0.0186,1.0063
0x50,9,39,9.824,22.053,0.0918,-0.0186,1.0063
0x50,9,39,9.837,22.066,0.0513,-0.0093,1.0288
0x50,9,39,9.843,22.072,0.0513,-0.0093,1.0288
0x50,9,39,9.893,22.122,-0.0327,-0.001,1.0254
0x50,9,39,9.893,22.122,-0.0327,-0.001,1.0254
0x50,9,39,9.893,22.122,-0.0972,0.0063,1.0146
0x50,9,39,9.893,22.122,-0.0972,0.0063,1.0146
0x50,9,39,9.906,22.135,-0.1299,0.0098,0.9946
0x50,9,39,9.947,22.176,-0.1299,0.0098,0.9946
0x50,9,39,9.948,22.177,-0.1182,0.0103,0.998
0x50,9,39,9.948,22.177,-0.1182,0.0103,0.998
0x50,9,39,9.951,22.18,-0.0679,0,1
0x50,9,39,9.956,22.185,-0.0679,0,1
0x50,9,39,9.959,22.188,0.0063,-0.0034,1.0142
0x50,9,39,9.974,22.203,0.0063,-0.0034,1.0142
0x50,9,39,9.981,22.21,0.0767,-0.0273,1.0205
0x50,9,39,9.999,22.228,0.0767,-0.0273,1.0205
0x50,9,39,10.001,22.23,0.0728,-0.0415,0.9971
0x50,9,39,10.028,22.257,0.0728,-0.0415,0.9971
0x50,9,39,10.028,22.257,0.019,-0.0801,0.9883
0x50,9,39,10.03,22.259,0.019,-0.0801,0.9883
0x50,9,39,10.032,22.261,-0.0713,-0.104,0.9888
0x50,9,39,10.049,22.278,-0.0713,-0.104,0.9888
0x50,9,39,10.052,22.281,-0.1348,-0.1084,1.0024
0x50,9,39,10.067,22.296,-0.1348,-0.1084,1.0024
0x50,9,39,10.071,22.3,-0.1372,-0.0845,1.0059
0x50,9,39,10.087,22.316,-0.1372,-0.0845,1.0059
0x50,9,39,10.091,22.32,-0.0928,-0.0239,0.9956
0x50,9,39,10.135,22.364,-0.0928,-0.0239,0.9956
0x50,9,39,10.135,22.364,-0.0283,0.0225,1.0093
0x50,9,39,10.135,22.364,-0.0283,0.0225,1.0093
0x50,9,39,10.135,22.364,0.0112,0.0625,1.022
0x50,9,39,10.146,22.375,0.0112,0.0625,1.022
0x50,9,39,10.15,22.379,0.0332,0.0645,1.0215
0x50,9,39,10.167,22.396,0.0332,0.0645,1.0215
0x50,9,39,10.17,22.399,0.0176,0.0503,1.0146
0x50,9,39,10.185,22.414,0.0176,0.0503,1.0146
0x50,9,39,10.191,22.42,-0.0229,0.0093,0.9976
0x50,9,39,10.208,22.437,-0.0229,0.0093,0.9976
0x50,9,39,10.213,22.442,-0.0635,-0.0454,0.9961
0x50,9,39,10.224,22.453,-0.0635,-0.0454,0.9961
0x50,9,39,10.233,22.462,-0.0972,-0.0796,0.9966
0x50,9,39,10.244,22.473,-0.0972,-0.0796,0.9966
0x50,9,39,10.276,22.505,-0.0781,-0.104,0.9937
0x50,9,39,10.276,22.505,-0.0781,-0.104,0.9937
0x50,9,39,10.316,22.545,-0.0361,-0.0913,0.9932
0x50,9,39,10.316,22.545,-0.0361,-0.0913,0.9932
0x50,9,39,10.316,22.545,0.0186,-0.0708,1.001
0x50,9,39,10.316,22.545,0.0186,-0.0708,1.001
0x50,9,39,10.321,22.55,0.041,-0.042,1.0063
0x50,9,39,10.332,22.561,0.041,-0.042,1.0063
0x50,9,39,10.342,22.571,0.0151,-0.0171,1.0137
0x50,9,39,10.344,22.573,0.0151,-0.0171,1.0137
0x50,9,39,10.351,22.58,-0.0405,-0.0054,1.0083
0x50,9,39,10.366,22.595,-0.0405,-0.0054,1.0083
0x50,9,39,10.37,22.599,-0.1021,0.0034,0.9956
0x50,9,39,10.403,22.632,-0.1021,0.0034,0.9956
0x50,9,39,10.406,22.635,-0.127,0.0034,1.0068
0x50,9,39,10.409,22.638,-0.127,0.0034,1.0068
0x50,9,39,10.411,22.64,-0.1099,0.0059,1.0117
0x50,9,39,10.421,22.65,-0.1099,0.0059,1.0117
0x50,9,39,10.432,22.661,-0.0586,0.0063,1.0093
0x50,9,39,10.442,22.671,-0.0586,0.0063,1.0093
0x50,9,39,10.452,22.681,-0.001,-0.0024,1.0073
0x50,9,39,10.46,22.689,-0.001,-0.0024,1.0073
0x50,9,39,10.506,22.735,0.0356,-0.0151,1.0034
0x50,9,39,10.506,22.735,0.0356,-0.0151,1.0034
0x50,9,39,10.506,22.735,0.0464,-0.0386,1.0117
0x50,9,39,10.506,22.735,0.0464,-0.0386,1.0117
0x50,9,39,10.514,22.743,0.0117,-0.0581,0.999
0x50,9,39,10.52,22.749,0.0117,-0.0581,0.999
0x50,9,39,10.53,22.759,-0.0327,-0.0767,0.9961
0x50,9,39,10.54,22.769,-0.0327,-0.0767,0.9961
0x50,9,39,10.551,22.78,-0.0781,-0.0776,0.9971
0x50,9,39,10.559,22.788,-0.0781,-0.0776,0.9971
0x50,9,39,10.574,22.803,-0.0967,-0.063,0.9946
0x50,9,39,10.578,22.807,-0.0967,-0.063,0.9946
0x50,9,39,10.594,22.823,-0.0781,-0.0356,0.998
0x50,9,39,10.612,22.841,-0.0781,-0.0356,0.998
0x50,9,39,10.618,22.847,-0.0454,0.0005,1.0107
0x50,9,39,10.643,22.872,-0.0454,0.0005,1.0107
0x50,9,39,10.667,22.896,-0.0107,0.0171,1.0117
0x50,9,39,10.677,22.906,-0.0107,0.0171,1.0117
0x50,9,39,10.677,22.906,-0.0039,0.0303,1.0112
0x50,9,39,10.682,22.911,-0.0039,0.0303,1.0112
0x50,9,39,10.685,22.914,-0.02,0.0137,1.0166
0x50,9,39,10.687,22.916,-0.02,0.0137,1.0166
0x50,9,39,10.689,22.918,-0.0518,-0.0132,1.0044
0x50,9,39,10.71,22.939,-0.0518,-0.0132,1.0044
0x50,9,39,10.746,22.975,-0.0649,-0.0405,1.002
0x50,9,39,10.746,22.975,-0.0649,-0.0405,1.002
0x50,9,39,10.746,22.975,-0.061,-0.063,1.0029
0x50,9,39,10.746,22.975,-0.061,-0.063,1.0029
0x50,9,39,10.747,22.976,-0.0396,-0.0674,0.9937
0x50,9,39,10.762,22.991,-0.0396,-0.0674,0.9937
0x50,9,39,10.768,22.997,-0.0098,-0.0654,0.9941
0x50,9,39,10.785,23.014,-0.0098,-0.0654,0.9941
0x50,9,39,10.787,23.016,0.0112,-0.0518,1.0044
0x50,9,39,10.805,23.034,0.0112,-0.0518,1.0044
0x50,9,39,10.807,23.036,0.0127,-0.0337,1.0122
0x50,9,39,10.825,23.054,0.0127,-0.0337,1.0122
0x50,9,39,10.827,23.056,-0.0117,-0.0176,1.0044
0x50,9,39,10.843,23.072,-0.0117,-0.0176,1.0044
0x50,9,39,10.846,23.075,-0.0537,-0.0015,1.002
0x50,9,39,10.863,23.092,-0.0537,-0.0015,1.002
0x50,9,39,10.866,23.095,-0.0913,-0.0005,1.0063
0x50,9,39,10.881,23.11,-0.0913,-0.0005,1.0063
0x50,9,39,10.936,23.165,-0.1055,0.0059,1.0088
0x50,9,39,10.936,23.165,-0.1055,0.0059,1.0088
0x50,9,39,10.936,23.165,-0.0835,0.0005,1.0054
0x50,9,39,10.936,23.165,-0.0835,0.0005,1.0054
0x50,9,39,10.936,23.165,-0.0449,-0.002,1.0054
0x50,9,39,10.94,23.169,-0.0449,-0.002,1.0054
0x50,9,39,10.959,23.188,-0.0054,-0.0181,1.0049
0x50,9,39,10.965,23.194,-0.0054,-0.0181,1.0049
0x50,9,39,10.982,23.211,0.0107,-0.0327,1.0024
0x50,9,39,10.982,23.211,0.0107,-0.0327,1.0024
0x50,9,39,11.007,23.236,0.0059,-0.0542,1.0049
0x50,9,39,11.03,23.259,0.0059,-0.0542,1.0049
0x50,9,39,11.056,23.285,-0.0137,-0.0688,1.0078
0x50,9,39,11.078,23.307,-0.0137,-0.0688,1.0078
0x50,9,39,11.081,23.31,-0.0303,-0.0698,0.9976
0x50,9,39,11.083,23.312,-0.0303,-0.0698,0.9976
0x50,9,39,11.086,23.315,-0.0449,-0.0586,0.9897
0x50,9,39,11.125,23.354,-0.0449,-0.0586,0.9897
0x50,9,39,11.125,23.354,-0.0483,-0.0449,1.0068
0x50,9,39,11.125,23.354,-0.0483,-0.0449,1.0068
0x50,9,39,11.125,23.354,-0.0469,-0.0234,1.002
0x50,9,39,11.125,23.354,-0.0469,-0.0234,1.002
0x50,9,39,11.125,23.354,-0.0356,0,1.0103
0x50,9,39,11.125,23.354,-0.0356,0,1.0103
0x50,9,39,11.131,23.36,-0.0308,0.0059,1.0132
0x50,9,39,11.135,23.364,-0.0308,0.0059,1.0132
0x50,9,39,11.147,23.376,-0.04,0.0137,1.0029
0x50,9,39,11.157,23.386,-0.04,0.0137,1.0029
0x50,9,39,11.167,23.396,-0.0508,-0.0044,1.0034
0x50,9,39,11.176,23.405,-0.0508,-0.0044,1.0034
0x50,9,39,11.191,23.42,-0.0718,-0.0166,1.0078
0x50,9,39,11.194,23.423,-0.0718,-0.0166,1.0078
0x50,9,39,11.209,23.438,-0.0649,-0.0386,1.0078
0x50,9,39,11.233,23.462,-0.0649,-0.0386,1.0078
0x50,9,39,11.233,23.462,-0.0493,-0.0435,1.0024
0x50,9,39,11.245,23.474,-0.0493,-0.0435,1.0024
0x50,9,39,11.256,23.485,-0.0215,-0.0508,0.9995
0x50,9,39,11.266,23.495,-0.0215,-0.0508,0.9995
0x50,9,39,11.274,23.503,-0.0024,-0.0449,0.9985
0x50,9,39,11.3,23.529,-0.0024,-0.0449,0.9985
0x50,9,39,11.3,23.529,0.0049,-0.0405,1.0044
0x50,9,39,11.3,23.529,0.0049,-0.0405,1.0044
0x50,9,39,11.316,23.545,-0.0039,-0.0342,1.0098
0x50,9,39,11.332,23.561,-0.0039,-0.0342,1.0098
0x50,9,39,11.332,23.561,-0.0239,-0.0259,1.0049
0x50,9,39,11.371,23.6,-0.0239,-0.0259,1.0049
0x50,9,39,11.371,23.6,-0.0459,-0.022,1.0039
0x50,9,39,11.372,23.601,-0.0459,-0.022,1.0039